image,type,duration,corr_ans,trials.thisRepN,trials.thisTrialN,trials.thisN,trials.thisIndex,trials_2.thisRepN,trials_2.thisTrialN,trials_2.thisN,trials_2.thisIndex,thisRow.t,notes,instructions.started,text.started,key_resp_2.started,instructions.stopped,key_resp_2.keys,key_resp_2.rt,key_resp_2.duration,original.started,fixation1.started,image1.started,fixation1.stopped,image1.stopped,original.stopped,instructions2.started,text_2.started,keyresp.started,instructions2.stopped,keyresp.keys,keyresp.rt,keyresp.duration,mixed.started,fixation2.started,key_resp.started,image_2.started,fixation2.stopped,image_2.stopped,mixed.stopped,key_resp.keys,key_resp.corr,key_resp.rt,key_resp.duration,thanks.started,text_3.started,thanks.stopped,participant,session,date,expName,psychopyVersion,frameRate,expStart,,,,,,,,,,,,,,0.027409292,0.042108417,0.042108417,14.59999392,space,14.47410758,None,,,,,,,,,,,,,,,,,,,,,,,,,,,,AK,1,2024-11-29_20h28.34.540,soloproject,2024.1.5,None,2024-11-29 20h28.44.871947 +0530/Users/mac/Desktop/0_Solo/landscapec3.jpg,colour,0.533,,0,0,0,6,,,,,14.70484883,,,,,,,,,14.62033358,14.70484883,21.60637421,21.69707863,22.15460779,22.12671521,,,,,,,,,,,,,,,,,,,,,,AK,1,2024-11-29_20h28.34.540,soloproject,2024.1.5,None,2024-11-29 20h28.44.871947 +0530/Users/mac/Desktop/0_Solo/mmc2.jpg,colour,0.8,,0,1,1,46,,,,,22.15460779,,,,,,,,,22.12724808,22.15460779,29.11738083,29.14802483,29.92947096,29.91007625,,,,,,,,,,,,,,,,,,,,,,AK,1,2024-11-29_20h28.34.540,soloproject,2024.1.5,None,2024-11-29 20h28.44.871947 +0530/Users/mac/Desktop/0_Solo/landscapebw4.jpg,bnw,0.2,,0,2,2,14,,,,,29.92947096,,,,,,,,,29.91047721,29.92947096,36.90026729,36.92651988,37.10996546,37.09339096,,,,,,,,,,,,,,,,,,,,,,AK,1,2024-11-29_20h28.34.540,soloproject,2024.1.5,None,2024-11-29 20h28.44.871947 +0530/Users/mac/Desktop/0_Solo/landscapebw3.jpg,bnw,0.533,,0,3,3,42,,,,,37.10996546,,,,,,,,,37.09378071,37.10996546,44.08500975,44.11011663,44.68833667,44.61069421,,,,,,,,,,,,,,,,,,,,,,AK,1,2024-11-29_20h28.34.540,soloproject,2024.1.5,None,2024-11-29 20h28.44.871947 +0530/Users/mac/Desktop/0_Solo/flowerc5.jpg,colour,0.2,,0,4,4,11,,,,,44.68833667,,,,,,,,,44.6120795,44.68833667,51.60399029,51.68352567,51.82994454,51.79361929,,,,,,,,,,,,,,,,,,,,,,AK,1,2024-11-29_20h28.34.540,soloproject,2024.1.5,None,2024-11-29 20h28.44.871947 +0530/Users/mac/Desktop/0_Solo/flowerbw4.jpg,bnw,0.2,,0,5,5,5,,,,,51.82994454,,,,,,,,,51.79428746,51.82994454,58.81014933,58.82678246,59.01543096,58.99467125,,,,,,,,,,,,,,,,,,,,,,AK,1,2024-11-29_20h28.34.540,soloproject,2024.1.5,None,2024-11-29 20h28.44.871947 +0530/Users/mac/Desktop/0_Solo/mmbw2.jpg,bnw,0.05,,0,6,6,7,,,,,59.01543096,,,,,,,,,58.99525792,59.01543096,65.98465733,66.01087033,66.08421246,66.02814763,,,,,,,,,,,,,,,,,,,,,,AK,1,2024-11-29_20h28.34.540,soloproject,2024.1.5,None,2024-11-29 20h28.44.871947 +0530/Users/mac/Desktop/0_Solo/flowerc6.jpg,colour,0.8,,0,7,7,0,,,,,66.08421246,,,,,,,,,66.02856567,66.08421246,73.02110046,73.07750429,73.85357825,73.81120379,,,,,,,,,,,,,,,,,,,,,,AK,1,2024-11-29_20h28.34.540,soloproject,2024.1.5,None,2024-11-29 20h28.44.871947 +0530/Users/mac/Desktop/0_Solo/rockbw4.jpg,bnw,0.8,,0,8,8,29,,,,,73.85357825,,,,,,,,,73.81161392,73.85357825,80.80206058,80.84917117,81.66498008,81.59531142,,,,,,,,,,,,,,,,,,,,,,AK,1,2024-11-29_20h28.34.540,soloproject,2024.1.5,None,2024-11-29 20h28.44.871947 +0530/Users/mac/Desktop/0_Solo/flowerc4.jpg,colour,0.05,,0,9,9,28,,,,,81.66498008,,,,,,,,,81.59600204,81.66498008,88.58568288,88.68137379,88.63408375,88.65191258,,,,,,,,,,,,,,,,,,,,,,AK,1,2024-11-29_20h28.34.540,soloproject,2024.1.5,None,2024-11-29 20h28.44.871947 +0530/Users/mac/Desktop/0_Solo/mmbw1.jpg,bnw,0.4,,0,10,10,30,,,,,88.68137379,,,,,,,,,88.65287942,88.68137379,95.64446604,95.67836729,96.09815154,96.02923725,,,,,,,,,,,,,,,,,,,,,,AK,1,2024-11-29_20h28.34.540,soloproject,2024.1.5,None,2024-11-29 20h28.44.871947 +0530/Users/mac/Desktop/0_Solo/rockc3.jpg,colour,1.067,,0,11,11,36,,,,,96.09815154,,,,,,,,,96.029784,96.09815154,103.0206282,103.0951595,104.1074266,104.0788992,,,,,,,,,,,,,,,,,,,,,,AK,1,2024-11-29_20h28.34.540,soloproject,2024.1.5,None,2024-11-29 20h28.44.871947 +0530/Users/mac/Desktop/0_Solo/rockbw2.jpg,bnw,0.8,,0,12,12,37,,,,,104.1074266,,,,,,,,,104.0794036,104.1074266,111.0701879,111.100686,111.8855462,111.8623432,,,,,,,,,,,,,,,,,,,,,,AK,1,2024-11-29_20h28.34.540,soloproject,2024.1.5,None,2024-11-29 20h28.44.871947 +0530/Users/mac/Desktop/0_Solo/mmc5.jpg,colour,0.2,,0,13,13,34,,,,,111.8855462,,,,,,,,,111.8629827,111.8855462,118.8531622,118.8784898,119.0852579,119.0467191,,,,,,,,,,,,,,,,,,,,,,AK,1,2024-11-29_20h28.34.540,soloproject,2024.1.5,None,2024-11-29 20h28.44.871947 +0530/Users/mac/Desktop/0_Solo/flowerbw2.jpg,bnw,0.533,,0,14,14,15,,,,,119.0852579,,,,,,,,,119.0473757,119.0852579,126.0373962,126.0790608,126.6341698,126.5630976,,,,,,,,,,,,,,,,,,,,,,AK,1,2024-11-29_20h28.34.540,soloproject,2024.1.5,None,2024-11-29 20h28.44.871947 +0530/Users/mac/Desktop/0_Solo/flowerc1.jpg,colour,0.8,,0,15,15,32,,,,,126.6341698,,,,,,,,,126.5635082,126.6341698,133.5562181,133.6298096,134.4152886,134.3457493,,,,,,,,,,,,,,,,,,,,,,AK,1,2024-11-29_20h28.34.540,soloproject,2024.1.5,None,2024-11-29 20h28.44.871947 +0530/Users/mac/Desktop/0_Solo/landscapec2.jpg,colour,0.4,,0,16,16,40,,,,,134.4152886,,,,,,,,,134.3470855,134.4152886,141.3382117,141.4129222,141.7534879,141.7298567,,,,,,,,,,,,,,,,,,,,,,AK,1,2024-11-29_20h28.34.540,soloproject,2024.1.5,None,2024-11-29 20h28.44.871947 +0530/Users/mac/Desktop/0_Solo/landscapebw2.jpg,bnw,0.05,,0,17,17,47,,,,,141.7534879,,,,,,,,,141.7303447,141.7534879,148.72033,148.7458972,148.7958642,148.7570387,,,,,,,,,,,,,,,,,,,,,,AK,1,2024-11-29_20h28.34.540,soloproject,2024.1.5,None,2024-11-29 20h28.44.871947 +0530/Users/mac/Desktop/0_Solo/flowerc2.jpg,colour,0.4,,0,18,18,4,,,,,148.7958642,,,,,,,,,148.757424,148.7958642,155.7565078,155.7848358,156.1691468,156.1474433,,,,,,,,,,,,,,,,,,,,,,AK,1,2024-11-29_20h28.34.540,soloproject,2024.1.5,None,2024-11-29 20h28.44.871947 +0530/Users/mac/Desktop/0_Solo/rockc1.jpg,colour,0.8,,0,19,19,16,,,,,156.1691468,,,,,,,,,156.1478005,156.1691468,163.1371963,163.1638141,164.2059822,163.9311694,,,,,,,,,,,,,,,,,,,,,,AK,1,2024-11-29_20h28.34.540,soloproject,2024.1.5,None,2024-11-29 20h28.44.871947 +0530/Users/mac/Desktop/0_Solo/rockc2.jpg,colour,0.533,,0,20,20,31,,,,,164.2059822,,,,,,,,,163.9315825,164.2059822,170.9253952,171.2024002,171.4813432,171.4471922,,,,,,,,,,,,,,,,,,,,,,AK,1,2024-11-29_20h28.34.540,soloproject,2024.1.5,None,2024-11-29 20h28.44.871947 +0530/Users/mac/Desktop/0_Solo/mmbw6.jpg,bnw,0.533,,0,21,21,24,,,,,171.4813432,,,,,,,,,171.4482311,171.4813432,178.4374253,178.469647,178.9703667,178.9539736,,,,,,,,,,,,,,,,,,,,,,AK,1,2024-11-29_20h28.34.540,soloproject,2024.1.5,None,2024-11-29 20h28.44.871947 +0530/Users/mac/Desktop/0_Solo/flowerbw5.jpg,bnw,0.533,,0,22,22,22,,,,,178.9703667,,,,,,,,,178.9543604,178.9703667,185.9473561,185.9644437,186.531366,186.4643797,,,,,,,,,,,,,,,,,,,,,,AK,1,2024-11-29_20h28.34.540,soloproject,2024.1.5,None,2024-11-29 20h28.44.871947 +0530/Users/mac/Desktop/0_Solo/flowerbw3.jpg,bnw,0.4,,0,23,23,43,,,,,186.531366,,,,,,,,,186.4651369,186.531366,193.457534,193.5308318,193.8700193,193.848338,,,,,,,,,,,,,,,,,,,,,,AK,1,2024-11-29_20h28.34.540,soloproject,2024.1.5,None,2024-11-29 20h28.44.871947 +0530/Users/mac/Desktop/0_Solo/rockbw6.jpg,bnw,0.4,,0,24,24,8,,,,,193.8700193,,,,,,,,,193.8487699,193.8700193,200.8393193,200.8641359,201.3842647,201.2319256,,,,,,,,,,,,,,,,,,,,,,AK,1,2024-11-29_20h28.34.540,soloproject,2024.1.5,None,2024-11-29 20h28.44.871947 +0530/Users/mac/Desktop/0_Solo/landscapec1.jpg,colour,1.067,,0,25,25,33,,,,,201.3842647,,,,,,,,,201.2331723,201.3842647,208.2344903,208.3812321,209.3234048,209.2892202,,,,,,,,,,,,,,,,,,,,,,AK,1,2024-11-29_20h28.34.540,soloproject,2024.1.5,None,2024-11-29 20h28.44.871947 +0530/Users/mac/Desktop/0_Solo/rockc6.jpg,colour,1.067,,0,26,26,25,,,,,209.3234048,,,,,,,,,209.2897248,209.3234048,216.290932,216.3202987,217.3763817,217.3489081,,,,,,,,,,,,,,,,,,,,,,AK,1,2024-11-29_20h28.34.540,soloproject,2024.1.5,None,2024-11-29 20h28.44.871947 +0530/Users/mac/Desktop/0_Solo/landscapec4.jpg,colour,0.4,,0,27,27,23,,,,,217.3763817,,,,,,,,,217.3502595,217.3763817,224.3396647,224.3774252,224.7516516,224.7324635,,,,,,,,,,,,,,,,,,,,,,AK,1,2024-11-29_20h28.34.540,soloproject,2024.1.5,None,2024-11-29 20h28.44.871947 +0530/Users/mac/Desktop/0_Solo/landscapebw6.jpg,bnw,0.533,,0,28,28,38,,,,,224.7516516,,,,,,,,,224.732952,224.7516516,231.723774,231.7486996,232.2732528,232.2500701,,,,,,,,,,,,,,,,,,,,,,AK,1,2024-11-29_20h28.34.540,soloproject,2024.1.5,None,2024-11-29 20h28.44.871947 +0530/Users/mac/Desktop/0_Solo/mmbw5.jpg,bnw,0.2,,0,29,29,45,,,,,232.2732528,,,,,,,,,232.2507964,232.2732528,239.2488885,239.265973,239.501487,239.4324928,,,,,,,,,,,,,,,,,,,,,,AK,1,2024-11-29_20h28.34.540,soloproject,2024.1.5,None,2024-11-29 20h28.44.871947 +0530/Users/mac/Desktop/0_Solo/flowerc3.jpg,colour,0.05,,0,30,30,35,,,,,239.501487,,,,,,,,,239.4329006,239.501487,246.4263641,246.5097953,246.4709455,246.4919198,,,,,,,,,,,,,,,,,,,,,,AK,1,2024-11-29_20h28.34.540,soloproject,2024.1.5,None,2024-11-29 20h28.44.871947 +0530/Users/mac/Desktop/0_Solo/landscapebw1.jpg,bnw,0.8,,0,31,31,21,,,,,246.5097953,,,,,,,,,246.4922617,246.5097953,253.4920874,253.5042927,254.3804251,254.2834765,,,,,,,,,,,,,,,,,,,,,,AK,1,2024-11-29_20h28.34.540,soloproject,2024.1.5,None,2024-11-29 20h28.44.871947 +0530/Users/mac/Desktop/0_Solo/rockc5.jpg,colour,0.2,,0,32,32,20,,,,,254.3804251,,,,,,,,,254.2841868,254.3804251,261.2755493,261.3772667,261.4923847,261.4665264,,,,,,,,,,,,,,,,,,,,,,AK,1,2024-11-29_20h28.34.540,soloproject,2024.1.5,None,2024-11-29 20h28.44.871947 +0530/Users/mac/Desktop/0_Solo/rockc4.jpg,colour,0.05,,0,33,33,2,,,,,261.4923847,,,,,,,,,261.4668953,261.4923847,268.4562712,268.4925564,268.5225607,268.4938926,,,,,,,,,,,,,,,,,,,,,,AK,1,2024-11-29_20h28.34.540,soloproject,2024.1.5,None,2024-11-29 20h28.44.871947 +0530/Users/mac/Desktop/0_Solo/rockbw1.jpg,bnw,0.4,,0,34,34,12,,,,,268.5225607,,,,,,,,,268.4941084,268.5225607,275.4917206,275.5164885,275.9140217,275.8748691,,,,,,,,,,,,,,,,,,,,,,AK,1,2024-11-29_20h28.34.540,soloproject,2024.1.5,None,2024-11-29 20h28.44.871947 +0530/Users/mac/Desktop/0_Solo/flowerbw1.jpg,bnw,0.2,,0,35,35,26,,,,,275.9140217,,,,,,,,,275.8755324,275.9140217,282.8750853,282.9058186,283.0923207,283.0681265,,,,,,,,,,,,,,,,,,,,,,AK,1,2024-11-29_20h28.34.540,soloproject,2024.1.5,None,2024-11-29 20h28.44.871947 +0530/Users/mac/Desktop/0_Solo/mmbw4.jpg,bnw,0.05,,0,36,36,17,,,,,283.0923207,,,,,,,,,283.0686782,283.0923207,290.0586497,290.0892455,290.121865,290.1012864,,,,,,,,,,,,,,,,,,,,,,AK,1,2024-11-29_20h28.34.540,soloproject,2024.1.5,None,2024-11-29 20h28.44.871947 +0530/Users/mac/Desktop/0_Solo/mmc4.jpg,colour,0.05,,0,37,37,19,,,,,290.121865,,,,,,,,,290.1016901,290.121865,297.0921532,297.1174821,297.287504,297.1349322,,,,,,,,,,,,,,,,,,,,,,AK,1,2024-11-29_20h28.34.540,soloproject,2024.1.5,None,2024-11-29 20h28.44.871947 +0530/Users/mac/Desktop/0_Solo/mmc1.jpg,colour,1.067,,0,38,38,13,,,,,297.287504,,,,,,,,,297.13532,297.287504,304.1277584,304.2846218,305.2525053,305.1852758,,,,,,,,,,,,,,,,,,,,,,AK,1,2024-11-29_20h28.34.540,soloproject,2024.1.5,None,2024-11-29 20h28.44.871947 +0530/Users/mac/Desktop/0_Solo/flowerbw6.jpg,bnw,0.2,,0,39,39,39,,,,,305.2525053,,,,,,,,,305.1860145,305.2525053,312.1763328,312.2404276,312.4201596,312.3681625,,,,,,,,,,,,,,,,,,,,,,AK,1,2024-11-29_20h28.34.540,soloproject,2024.1.5,None,2024-11-29 20h28.44.871947 +0530/Users/mac/Desktop/0_Solo/rockbw3.jpg,bnw,1.067,,0,40,40,44,,,,,312.4201596,,,,,,,,,312.3686008,312.4201596,319.3586625,319.4180806,320.4392303,320.4190565,,,,,,,,,,,,,,,,,,,,,,AK,1,2024-11-29_20h28.34.540,soloproject,2024.1.5,None,2024-11-29 20h28.44.871947 +0530/Users/mac/Desktop/0_Solo/landscapebw2.jpg,bnw,0.8,,0,41,41,10,,,,,320.4392303,,,,,,,,,320.4194647,320.4392303,327.4275341,327.4348076,328.2415709,328.2191623,,,,,,,,,,,,,,,,,,,,,,AK,1,2024-11-29_20h28.34.540,soloproject,2024.1.5,None,2024-11-29 20h28.44.871947 +0530/Users/mac/Desktop/0_Solo/mmc6.jpg,colour,1.067,,0,42,42,9,,,,,328.2415709,,,,,,,,,328.2196577,328.2415709,335.2090632,335.2354841,336.2906546,336.2695638,,,,,,,,,,,,,,,,,,,,,,AK,1,2024-11-29_20h28.34.540,soloproject,2024.1.5,None,2024-11-29 20h28.44.871947 +0530/Users/mac/Desktop/0_Solo/landscapec5.jpg,colour,0.4,,0,43,43,27,,,,,336.2906546,,,,,,,,,336.2700474,336.2906546,343.2601102,343.285801,343.6638248,343.6432475,,,,,,,,,,,,,,,,,,,,,,AK,1,2024-11-29_20h28.34.540,soloproject,2024.1.5,None,2024-11-29 20h28.44.871947 +0530/Users/mac/Desktop/0_Solo/landscapebw5.jpg,bnw,0.533,,0,44,44,1,,,,,343.6638248,,,,,,,,,343.6437798,343.6638248,350.6354142,350.6575722,351.1697125,351.1533355,,,,,,,,,,,,,,,,,,,,,,AK,1,2024-11-29_20h28.34.540,soloproject,2024.1.5,None,2024-11-29 20h28.44.871947 +0530/Users/mac/Desktop/0_Solo/mmc3.jpg,colour,1.067,,0,45,45,3,,,,,351.1697125,,,,,,,,,351.1540601,351.1697125,358.143701,358.157599,359.2247217,359.2037884,,,,,,,,,,,,,,,,,,,,,,AK,1,2024-11-29_20h28.34.540,soloproject,2024.1.5,None,2024-11-29 20h28.44.871947 +0530/Users/mac/Desktop/0_Solo/landscapec6.jpg,colour,1.067,,0,46,46,18,,,,,359.2247217,,,,,,,,,359.2042809,359.2247217,366.2020934,366.2197587,367.2769039,367.2539559,,,,,,,,,,,,,,,,,,,,,,AK,1,2024-11-29_20h28.34.540,soloproject,2024.1.5,None,2024-11-29 20h28.44.871947 +0530/Users/mac/Desktop/0_Solo/rockbw5.jpg,bnw,0.05,,0,47,47,41,,,,,367.2769039,,,,,,,,,367.2544986,367.2769039,374.2454582,374.2700667,374.300368,374.2872428,,,,,,,,,,,,,,,,,,,,,,AK,1,2024-11-29_20h28.34.540,soloproject,2024.1.5,None,2024-11-29 20h28.44.871947 +0530,,,,,,,,,,,,,,,,,,,,,,,,,,,374.2875819,374.300368,374.300368,376.4871766,space,2.1817675,None,,,,,,,,,,,,,,,AK,1,2024-11-29_20h28.34.540,soloproject,2024.1.5,None,2024-11-29 20h28.44.871947 +0530/Users/mac/Desktop/0_Solo/landscapebw2.jpg,,0.4,y,,,,,0,0,0,19,376.5320867,,,,,,,,,,,,,,,,,,,,,,376.518706,376.5320867,376.5320867,383.4788792,383.5259798,383.8778468,385.7228116,y,0,9.179460167,None,,,,AK,1,2024-11-29_20h28.34.540,soloproject,2024.1.5,None,2024-11-29 20h28.44.871947 +0530/Users/mac/Desktop/0_Solo/flowercn4.jpg,,0.8,n,,,,,0,1,1,64,385.7564995,,,,,,,,,,,,,,,,,,,,,,385.7274241,385.7564995,385.7564995,392.7198842,392.7534528,393.5082034,394.4530302,n,0,8.691076916,None,,,,AK,1,2024-11-29_20h28.34.540,soloproject,2024.1.5,None,2024-11-29 20h28.44.871947 +0530/Users/mac/Desktop/0_Solo/mmc2.jpg,,0.4,y,,,,,0,2,2,55,394.4789147,,,,,,,,,,,,,,,,,,,,,,394.4540669,394.4789147,394.4789147,401.445208,401.4784388,401.8374643,402.696127,y,0,8.213319333,None,,,,AK,1,2024-11-29_20h28.34.540,soloproject,2024.1.5,None,2024-11-29 20h28.44.871947 +0530/Users/mac/Desktop/0_Solo/rockbwn4.jpg,,0.2,n,,,,,0,3,3,53,402.7204271,,,,,,,,,,,,,,,,,,,,,,402.6970619,402.7204271,402.7204271,409.6948835,409.7086874,409.887636,411.128701,y,0,8.40457775,None,,,,AK,1,2024-11-29_20h28.34.540,soloproject,2024.1.5,None,2024-11-29 20h28.44.871947 +0530/Users/mac/Desktop/0_Solo/mmbw2.jpg,,0.2,y,,,,,0,4,4,7,411.224187,,,,,,,,,,,,,,,,,,,,,,411.1298239,411.224187,411.224187,418.1286785,418.2212756,418.3262828,419.606959,n,0,8.370817917,None,,,,AK,1,2024-11-29_20h28.34.540,soloproject,2024.1.5,None,2024-11-29 20h28.44.871947 +0530/Users/mac/Desktop/0_Solo/flowercn2.jpg,,1.067,n,,,,,0,5,5,15,419.6586551,,,,,,,,,,,,,,,,,,,,,,419.6078221,419.6586551,419.6586551,426.6042568,426.6546867,427.6608885,427.8232683,n,0,8.152692292,None,,,,AK,1,2024-11-29_20h28.34.540,soloproject,2024.1.5,None,2024-11-29 20h28.44.871947 +0530/Users/mac/Desktop/0_Solo/landscapecn2.jpg,,0.4,n,,,,,0,6,6,25,427.8893843,,,,,,,,,,,,,,,,,,,,,,427.8243018,427.8893843,427.8893843,434.820374,434.8878507,435.2103398,435.8231261,n,0,7.928847916,None,,,,AK,1,2024-11-29_20h28.34.540,soloproject,2024.1.5,None,2024-11-29 20h28.44.871947 +0530/Users/mac/Desktop/0_Solo/flowerbwn1.jpg,,0.533,n,,,,,0,7,7,54,435.8513191,,,,,,,,,,,,,,,,,,,,,,435.8245291,435.8513191,435.8513191,442.8210757,442.8437555,443.3437735,444.6251017,y,0,8.770960416,None,,,,AK,1,2024-11-29_20h28.34.540,soloproject,2024.1.5,None,2024-11-29 20h28.44.871947 +0530/Users/mac/Desktop/0_Solo/mmc3.jpg,,1.067,y,,,,,0,8,8,56,444.6502857,,,,,,,,,,,,,,,,,,,,,,444.6261935,444.6502857,444.6502857,,,,450.3144113,n,0,5.657290167,None,,,,AK,1,2024-11-29_20h28.34.540,soloproject,2024.1.5,None,2024-11-29 20h28.44.871947 +0530/Users/mac/Desktop/0_Solo/landscapecn5.jpg,,1.067,n,,,,,0,9,9,61,450.3363554,,,,,,,,,,,,,,,,,,,,,,450.3153148,450.3363554,450.3363554,457.3137713,457.3262813,458.3826363,459.2362111,n,0,8.887231458,None,,,,AK,1,2024-11-29_20h28.34.540,soloproject,2024.1.5,None,2024-11-29 20h28.44.871947 +0530/Users/mac/Desktop/0_Solo/rockc6.jpg,,0.4,y,,,,,0,10,10,67,459.2627628,,,,,,,,,,,,,,,,,,,,,,459.2371443,459.2627628,459.2627628,466.2302597,466.256078,466.627377,467.7669482,y,0,8.500253416,None,,,,AK,1,2024-11-29_20h28.34.540,soloproject,2024.1.5,None,2024-11-29 20h28.44.871947 +0530/Users/mac/Desktop/0_Solo/landscapebwn4.jpg,,0.4,n,,,,,0,11,11,11,467.8126963,,,,,,,,,,,,,,,,,,,,,,467.7678321,467.8126963,467.8126963,474.7669148,474.805941,475.1619213,476.1148268,n,0,8.295952708,None,,,,AK,1,2024-11-29_20h28.34.540,soloproject,2024.1.5,None,2024-11-29 20h28.44.871947 +0530/Users/mac/Desktop/0_Solo/flowerbw3.jpg,,0.05,y,,,,,0,12,12,70,476.2044977,,,,,,,,,,,,,,,,,,,,,,476.1164501,476.2044977,476.2044977,483.1151115,483.1943262,483.163245,484.0480609,y,0,7.840596875,None,,,,AK,1,2024-11-29_20h28.34.540,soloproject,2024.1.5,None,2024-11-29 20h28.44.871947 +0530/Users/mac/Desktop/0_Solo/mmbw5.jpg,,0.533,y,,,,,0,13,13,92,484.075554,,,,,,,,,,,,,,,,,,,,,,484.0489369,484.075554,484.075554,491.0485161,491.0734235,491.5783233,493.0602468,n,0,8.978262792,None,,,,AK,1,2024-11-29_20h28.34.540,soloproject,2024.1.5,None,2024-11-29 20h28.44.871947 +0530/Users/mac/Desktop/0_Solo/landscapebw5.jpg,,0.2,y,,,,,0,14,14,75,493.0879604,,,,,,,,,,,,,,,,,,,,,,493.0616422,493.0879604,493.0879604,500.0564267,500.0792675,500.245814,501.3820168,n,0,8.281010459,None,,,,AK,1,2024-11-29_20h28.34.540,soloproject,2024.1.5,None,2024-11-29 20h28.44.871947 +0530/Users/mac/Desktop/0_Solo/landscapebw1.jpg,,0.4,y,,,,,0,15,15,31,501.4033148,,,,,,,,,,,,,,,,,,,,,,501.3844123,501.4033148,501.4033148,508.3765353,508.3959662,508.7730384,509.4431072,y,0,8.037125208,None,,,,AK,1,2024-11-29_20h28.34.540,soloproject,2024.1.5,None,2024-11-29 20h28.44.871947 +0530/Users/mac/Desktop/0_Solo/landscapebw4.jpg,,0.4,y,,,,,0,16,16,3,509.4682763,,,,,,,,,,,,,,,,,,,,,,509.4440007,509.4682763,509.4682763,516.4402008,516.4627362,516.8297283,517.8933895,y,0,8.418875542,None,,,,AK,1,2024-11-29_20h28.34.540,soloproject,2024.1.5,None,2024-11-29 20h28.44.871947 +0530/Users/mac/Desktop/0_Solo/landscapebwn3.jpg,,0.533,n,,,,,0,17,17,48,517.9209772,,,,,,,,,,,,,,,,,,,,,,517.8942299,517.9209772,517.9209772,524.8901526,524.9129826,525.416144,526.5100349,n,0,8.577606792,None,,,,AK,1,2024-11-29_20h28.34.540,soloproject,2024.1.5,None,2024-11-29 20h28.44.871947 +0530/Users/mac/Desktop/0_Solo/rockbw3.jpg,,0.533,y,,,,,0,18,18,60,526.5663672,,,,,,,,,,,,,,,,,,,,,,526.5115172,526.5663672,526.5663672,533.5070541,533.5631951,534.0309032,540.7327104,n,0,14.16188138,None,,,,AK,1,2024-11-29_20h28.34.540,soloproject,2024.1.5,None,2024-11-29 20h28.44.871947 +0530/Users/mac/Desktop/0_Solo/landscapecn1.jpg,,0.8,n,,,,,0,19,19,30,540.8037416,,,,,,,,,,,,,,,,,,,,,,540.7337832,540.8037416,540.8037416,547.7337311,547.7978482,548.5304729,548.9156491,n,0,8.105707583,None,,,,AK,1,2024-11-29_20h28.34.540,soloproject,2024.1.5,None,2024-11-29 20h28.44.871947 +0530/Users/mac/Desktop/0_Solo/mmcn4.jpg,,1.067,n,,,,,0,20,20,28,548.9426038,,,,,,,,,,,,,,,,,,,,,,548.9167223,548.9426038,548.9426038,555.9158259,555.9421747,556.9806404,557.7506956,y,0,8.803603125,None,,,,AK,1,2024-11-29_20h28.34.540,soloproject,2024.1.5,None,2024-11-29 20h28.44.871947 +0530/Users/mac/Desktop/0_Solo/flowerbwn5.jpg,,0.4,n,,,,,0,21,21,44,557.7679133,,,,,,,,,,,,,,,,,,,,,,557.7515795,557.7679133,557.7679133,564.7489925,564.7690781,565.142444,567.6798993,y,0,9.908453292,None,,,,AK,1,2024-11-29_20h28.34.540,soloproject,2024.1.5,None,2024-11-29 20h28.44.871947 +0530/Users/mac/Desktop/0_Solo/flowercn6.jpg,,0.8,n,,,,,0,22,22,49,567.705079,,,,,,,,,,,,,,,,,,,,,,567.6810005,567.705079,567.705079,574.6753018,574.6970985,575.4642002,576.2552984,y,0,8.538818583,None,,,,AK,1,2024-11-29_20h28.34.540,soloproject,2024.1.5,None,2024-11-29 20h28.44.871947 +0530/Users/mac/Desktop/0_Solo/flowerbwn3.jpg,,0.2,n,,,,,0,23,23,4,576.3283115,,,,,,,,,,,,,,,,,,,,,,576.2568718,576.3283115,576.3283115,583.2513789,583.3254195,583.4502609,585.6838806,n,0,9.351313125,None,,,,AK,1,2024-11-29_20h28.34.540,soloproject,2024.1.5,None,2024-11-29 20h28.44.871947 +0530/Users/mac/Desktop/0_Solo/flowerc1.jpg,,0.8,y,,,,,0,24,24,58,585.7576184,,,,,,,,,,,,,,,,,,,,,,585.6849243,585.7576184,585.7576184,592.6843755,592.7479924,593.4818886,593.6123754,y,0,7.846200375,None,,,,AK,1,2024-11-29_20h28.34.540,soloproject,2024.1.5,None,2024-11-29 20h28.44.871947 +0530/Users/mac/Desktop/0_Solo/landscapecn3.jpg,,0.05,n,,,,,0,25,25,62,593.6434854,,,,,,,,,,,,,,,,,,,,,,593.6133828,593.6434854,593.6434854,600.6098988,600.6321,600.6480946,602.0024653,y,0,8.353574875,None,,,,AK,1,2024-11-29_20h28.34.540,soloproject,2024.1.5,None,2024-11-29 20h28.44.871947 +0530/Users/mac/Desktop/0_Solo/rockbwn2.jpg,,0.533,n,,,,,0,26,26,17,602.037587,,,,,,,,,,,,,,,,,,,,,,602.0041273,602.037587,602.037587,609.0009576,609.0322503,609.5268115,610.252401,y,0,8.2080925,None,,,,AK,1,2024-11-29_20h28.34.540,soloproject,2024.1.5,None,2024-11-29 20h28.44.871947 +0530/Users/mac/Desktop/0_Solo/mmcn3.jpg,,0.05,n,,,,,0,27,27,78,610.278084,,,,,,,,,,,,,,,,,,,,,,610.253274,610.278084,610.278084,617.2529677,617.2768685,617.298996,618.1625154,y,0,7.877628875,None,,,,AK,1,2024-11-29_20h28.34.540,soloproject,2024.1.5,None,2024-11-29 20h28.44.871947 +0530/Users/mac/Desktop/0_Solo/flowerc6.jpg,,0.05,y,,,,,0,28,28,26,618.2377542,,,,,,,,,,,,,,,,,,,,,,618.163647,618.2377542,618.2377542,625.1597,625.2319518,625.1997072,626.3959676,n,0,8.146470417,None,,,,AK,1,2024-11-29_20h28.34.540,soloproject,2024.1.5,None,2024-11-29 20h28.44.871947 +0530/Users/mac/Desktop/0_Solo/rockcn4.jpg,,0.533,n,,,,,0,29,29,2,626.4238128,,,,,,,,,,,,,,,,,,,,,,626.3970209,626.4238128,626.4238128,633.4105586,633.4198012,633.9324028,634.8797904,n,0,8.4491505,None,,,,AK,1,2024-11-29_20h28.34.540,soloproject,2024.1.5,None,2024-11-29 20h28.44.871947 +0530/Users/mac/Desktop/0_Solo/flowercn1.jpg,,0.8,n,,,,,0,30,30,71,634.895794,,,,,,,,,,,,,,,,,,,,,,634.8806256,634.895794,634.895794,641.877299,641.8946819,642.6665542,642.9635641,n,0,8.063044834,None,,,,AK,1,2024-11-29_20h28.34.540,soloproject,2024.1.5,None,2024-11-29 20h28.44.871947 +0530/Users/mac/Desktop/0_Solo/flowerbw5.jpg,,0.4,y,,,,,0,31,31,12,642.9860218,,,,,,,,,,,,,,,,,,,,,,642.9646777,642.9860218,642.9860218,649.960887,649.9835007,650.3510288,651.4042502,n,0,8.414040167,None,,,,AK,1,2024-11-29_20h28.34.540,soloproject,2024.1.5,None,2024-11-29 20h28.44.871947 +0530/Users/mac/Desktop/0_Solo/mmbwn3.jpg,,0.2,n,,,,,0,32,32,66,651.4272622,,,,,,,,,,,,,,,,,,,,,,651.4051193,651.4272622,651.4272622,658.4022516,658.4163438,658.5996642,659.6526201,y,0,8.2212655,None,,,,AK,1,2024-11-29_20h28.34.540,soloproject,2024.1.5,None,2024-11-29 20h28.44.871947 +0530/Users/mac/Desktop/0_Solo/mmbwn4.jpg,,0.2,n,,,,,0,33,33,94,659.6795437,,,,,,,,,,,,,,,,,,,,,,659.653703,659.6795437,659.6795437,666.6529125,666.6786611,666.8454228,668.0815648,n,0,8.399548792,None,,,,AK,1,2024-11-29_20h28.34.540,soloproject,2024.1.5,None,2024-11-29 20h28.44.871947 +0530/Users/mac/Desktop/0_Solo/mmc4.jpg,,0.533,y,,,,,0,34,34,85,668.1057598,,,,,,,,,,,,,,,,,,,,,,668.0826517,668.1057598,668.1057598,675.0785156,675.1006209,675.6008669,676.1320182,y,0,8.016032375,None,,,,AK,1,2024-11-29_20h28.34.540,soloproject,2024.1.5,None,2024-11-29 20h28.44.871947 +0530/Users/mac/Desktop/0_Solo/rockbw4.jpg,,1.067,y,,,,,0,35,35,51,676.1838488,,,,,,,,,,,,,,,,,,,,,,676.1333455,676.1838488,676.1838488,683.1285679,683.178949,684.1846825,684.7469463,y,0,8.535353625,None,,,,AK,1,2024-11-29_20h28.34.540,soloproject,2024.1.5,None,2024-11-29 20h28.44.871947 +0530/Users/mac/Desktop/0_Solo/rockbwn1.jpg,,0.533,n,,,,,0,36,36,35,684.7739415,,,,,,,,,,,,,,,,,,,,,,684.74798,684.7739415,684.7739415,691.7454393,691.7620294,692.2680746,694.7975975,n,0,10.01912008,None,,,,AK,1,2024-11-29_20h28.34.540,soloproject,2024.1.5,None,2024-11-29 20h28.44.871947 +0530/Users/mac/Desktop/0_Solo/flowercn3.jpg,,0.05,n,,,,,0,37,37,73,694.8828455,,,,,,,,,,,,,,,,,,,,,,694.7985956,694.8828455,694.8828455,701.8080193,701.8797207,701.8513153,711.4926106,n,0,16.60448229,None,,,,AK,1,2024-11-29_20h28.34.540,soloproject,2024.1.5,None,2024-11-29 20h28.44.871947 +0530/Users/mac/Desktop/0_Solo/landscapec1.jpg,,0.8,y,,,,,0,38,38,86,711.6498647,,,,,,,,,,,,,,,,,,,,,,711.4942696,711.6498647,711.6498647,718.4888356,718.646905,719.2850688,720.067521,n,0,8.414681667,None,,,,AK,1,2024-11-29_20h28.34.540,soloproject,2024.1.5,None,2024-11-29 20h28.44.871947 +0530/Users/mac/Desktop/0_Solo/mmbwn6.jpg,,0.05,n,,,,,0,39,39,93,720.1025162,,,,,,,,,,,,,,,,,,,,,,720.0685519,720.1025162,720.1025162,727.0632414,727.0969177,727.1020164,729.9321736,y,0,9.819743333,None,,,,AK,1,2024-11-29_20h28.34.540,soloproject,2024.1.5,None,2024-11-29 20h28.44.871947 +0530/Users/mac/Desktop/0_Solo/mmc6.jpg,,0.533,y,,,,,0,40,40,27,729.9572429,,,,,,,,,,,,,,,,,,,,,,729.9331439,729.9572429,729.9572429,736.9297116,736.9530724,737.454819,738.2334004,y,0,8.265332667,None,,,,AK,1,2024-11-29_20h28.34.540,soloproject,2024.1.5,None,2024-11-29 20h28.44.871947 +0530/Users/mac/Desktop/0_Solo/rockc5.jpg,,1.067,y,,,,,0,41,41,33,738.326389,,,,,,,,,,,,,,,,,,,,,,738.2347677,738.326389,738.326389,745.2345668,745.3192858,,746.117472,y,0,7.778054958,None,,,,AK,1,2024-11-29_20h28.34.540,soloproject,2024.1.5,None,2024-11-29 20h28.44.871947 +0530/Users/mac/Desktop/0_Solo/mmbw6.jpg,,0.4,y,,,,,0,42,42,38,746.1460124,,,,,,,,,,,,,,,,,,,,,,746.1183494,746.1460124,746.1460124,753.1134684,753.1371761,753.5016013,754.3996412,y,0,8.243034667,None,,,,AK,1,2024-11-29_20h28.34.540,soloproject,2024.1.5,None,2024-11-29 20h28.44.871947 +0530/Users/mac/Desktop/0_Solo/flowerbwn6.jpg,,0.05,n,,,,,0,43,43,57,754.4248038,,,,,,,,,,,,,,,,,,,,,,754.4006024,754.4248038,754.4248038,761.3970385,761.4195646,761.4385091,762.7735818,y,0,8.336633667,None,,,,AK,1,2024-11-29_20h28.34.540,soloproject,2024.1.5,None,2024-11-29 20h28.44.871947 +0530/Users/mac/Desktop/0_Solo/rockcn2.jpg,,1.067,n,,,,,0,44,44,40,762.8006307,,,,,,,,,,,,,,,,,,,,,,762.7760722,762.8006307,762.8006307,769.7673768,769.7978164,770.8313255,771.7066763,n,0,8.8989465,None,,,,AK,1,2024-11-29_20h28.34.540,soloproject,2024.1.5,None,2024-11-29 20h28.44.871947 +0530/Users/mac/Desktop/0_Solo/rockbwn3.jpg,,0.4,n,,,,,0,45,45,77,771.7354855,,,,,,,,,,,,,,,,,,,,,,771.7078615,771.7354855,771.7354855,778.7061096,778.7316005,779.1037562,779.9844524,n,0,8.24203575,None,,,,AK,1,2024-11-29_20h28.34.540,soloproject,2024.1.5,None,2024-11-29 20h28.44.871947 +0530/Users/mac/Desktop/0_Solo/landscapec4.jpg,,0.533,y,,,,,0,46,46,79,780.0130218,,,,,,,,,,,,,,,,,,,,,,779.9856243,780.0130218,780.0130218,786.9816691,787.0041996,787.5028355,787.7674995,y,0,7.749352458,None,,,,AK,1,2024-11-29_20h28.34.540,soloproject,2024.1.5,None,2024-11-29 20h28.44.871947 +0530/Users/mac/Desktop/0_Solo/flowerc3.jpg,,1.067,y,,,,,0,47,47,1,787.8343558,,,,,,,,,,,,,,,,,,,,,,787.7686395,787.8343558,787.8343558,794.7703771,794.8320772,795.8320196,795.9682126,y,0,8.123005417,None,,,,AK,1,2024-11-29_20h28.34.540,soloproject,2024.1.5,None,2024-11-29 20h28.44.871947 +0530/Users/mac/Desktop/0_Solo/landscapec2.jpg,,0.2,y,,,,,0,48,48,20,796.0438798,,,,,,,,,,,,,,,,,,,,,,795.9692998,796.0438798,796.0438798,802.9684672,803.0382699,803.1661242,804.269875,y,0,8.213527125,None,,,,AK,1,2024-11-29_20h28.34.540,soloproject,2024.1.5,None,2024-11-29 20h28.44.871947 +0530/Users/mac/Desktop/0_Solo/rockbwn6.jpg,,0.8,n,,,,,0,49,49,16,804.307312,,,,,,,,,,,,,,,,,,,,,,804.271607,804.307312,804.307312,811.2660308,811.3064792,812.0554168,812.443547,n,0,8.131887416,None,,,,AK,1,2024-11-29_20h28.34.540,soloproject,2024.1.5,None,2024-11-29 20h28.44.871947 +0530/Users/mac/Desktop/0_Solo/flowercn5.jpg,,1.067,n,,,,,0,50,50,21,812.4693016,,,,,,,,,,,,,,,,,,,,,,812.4447327,812.4693016,812.4693016,819.4402309,819.4660085,820.4990523,820.5683318,n,0,8.089813958,None,,,,AK,1,2024-11-29_20h28.34.540,soloproject,2024.1.5,None,2024-11-29 20h28.44.871947 +0530/Users/mac/Desktop/0_Solo/flowerbwn4.jpg,,0.2,n,,,,,0,51,51,84,820.5906985,,,,,,,,,,,,,,,,,,,,,,820.5692024,820.5906985,820.5906985,827.5663867,827.5890574,827.7588989,828.7243145,n,0,8.123072208,None,,,,AK,1,2024-11-29_20h28.34.540,soloproject,2024.1.5,None,2024-11-29 20h28.44.871947 +0530/Users/mac/Desktop/0_Solo/rockc3.jpg,,0.8,y,,,,,0,52,52,5,828.8002102,,,,,,,,,,,,,,,,,,,,,,828.7262,828.8002102,828.8002102,835.7257879,835.800113,836.524439,836.9200304,y,0,8.117054792,None,,,,AK,1,2024-11-29_20h28.34.540,soloproject,2024.1.5,None,2024-11-29 20h28.44.871947 +0530/Users/mac/Desktop/0_Solo/flowerc2.jpg,,1.067,y,,,,,0,53,53,76,836.9900688,,,,,,,,,,,,,,,,,,,,,,836.9209076,836.9900688,836.9900688,843.916673,843.9838703,844.9729098,845.4209195,y,0,8.427407583,None,,,,AK,1,2024-11-29_20h28.34.540,soloproject,2024.1.5,None,2024-11-29 20h28.44.871947 +0530/Users/mac/Desktop/0_Solo/mmc1.jpg,,1.067,y,,,,,0,54,54,81,845.566377,,,,,,,,,,,,,,,,,,,,,,845.421847,845.566377,845.566377,852.4179997,852.5561796,853.4836588,853.7131365,y,0,8.133116667,None,,,,AK,1,2024-11-29_20h28.34.540,soloproject,2024.1.5,None,2024-11-29 20h28.44.871947 +0530/Users/mac/Desktop/0_Solo/rockbw1.jpg,,0.05,y,,,,,0,55,55,42,853.7449337,,,,,,,,,,,,,,,,,,,,,,853.7139237,853.7449337,853.7449337,860.7075735,860.7404399,860.7502736,862.1256184,n,0,8.376070709,None,,,,AK,1,2024-11-29_20h28.34.540,soloproject,2024.1.5,None,2024-11-29 20h28.44.871947 +0530/Users/mac/Desktop/0_Solo/flowerc5.jpg,,0.2,y,,,,,0,56,56,83,862.2016678,,,,,,,,,,,,,,,,,,,,,,862.1267585,862.2016678,862.2016678,869.1267793,869.1900481,869.3231548,869.9266215,y,0,7.719123292,None,,,,AK,1,2024-11-29_20h28.34.540,soloproject,2024.1.5,None,2024-11-29 20h28.44.871947 +0530/Users/mac/Desktop/0_Solo/rockbwn5.jpg,,0.2,n,,,,,0,57,57,63,869.9565315,,,,,,,,,,,,,,,,,,,,,,869.9275886,869.9565315,869.9565315,876.9250765,876.9515898,877.1183888,878.0207496,y,0,8.052026167,None,,,,AK,1,2024-11-29_20h28.34.540,soloproject,2024.1.5,None,2024-11-29 20h28.44.871947 +0530/Users/mac/Desktop/0_Solo/landscapebwn1.jpg,,0.05,n,,,,,0,58,58,10,878.0600422,,,,,,,,,,,,,,,,,,,,,,878.0218603,878.0600422,878.0600422,885.0179024,885.0563636,885.0563636,885.7654611,n,0,7.700973417,None,,,,AK,1,2024-11-29_20h28.34.540,soloproject,2024.1.5,None,2024-11-29 20h28.44.871947 +0530/Users/mac/Desktop/0_Solo/rockc4.jpg,,0.4,y,,,,,0,59,59,65,885.7930915,,,,,,,,,,,,,,,,,,,,,,885.7668303,885.7930915,885.7930915,892.762304,892.7847579,893.15742,893.672137,y,0,7.875983792,None,,,,AK,1,2024-11-29_20h28.34.540,soloproject,2024.1.5,None,2024-11-29 20h28.44.871947 +0530/Users/mac/Desktop/0_Solo/landscapec6.jpg,,0.2,y,,,,,0,60,60,36,893.6968086,,,,,,,,,,,,,,,,,,,,,,893.6734326,893.6968086,893.6968086,900.6685896,900.6902603,900.8561416,901.8371998,y,0,8.128107292,None,,,,AK,1,2024-11-29_20h28.34.540,soloproject,2024.1.5,None,2024-11-29 20h28.44.871947 +0530/Users/mac/Desktop/0_Solo/rockc1.jpg,,0.8,y,,,,,0,61,61,47,901.8603517,,,,,,,,,,,,,,,,,,,,,,901.8380721,901.8603517,901.8603517,908.8352898,908.8581519,909.624597,910.2888777,y,0,8.42598425,None,,,,AK,1,2024-11-29_20h28.34.540,soloproject,2024.1.5,None,2024-11-29 20h28.44.871947 +0530/Users/mac/Desktop/0_Solo/mmbw1.jpg,,0.533,y,,,,,0,62,62,6,910.3151513,,,,,,,,,,,,,,,,,,,,,,910.2898167,910.3151513,910.3151513,917.284944,917.3081557,917.806537,918.504261,y,0,8.17942525,None,,,,AK,1,2024-11-29_20h28.34.540,soloproject,2024.1.5,None,2024-11-29 20h28.44.871947 +0530/Users/mac/Desktop/0_Solo/mmbwn5.jpg,,0.8,n,,,,,0,63,63,37,918.5268113,,,,,,,,,,,,,,,,,,,,,,918.5053206,918.5268113,918.5268113,925.5021478,925.5258153,926.2920233,927.4547054,n,0,8.916392417,None,,,,AK,1,2024-11-29_20h28.34.540,soloproject,2024.1.5,None,2024-11-29 20h28.44.871947 +0530/Users/mac/Desktop/0_Solo/landscapecn4.jpg,,0.533,n,,,,,0,64,64,41,927.4791747,,,,,,,,,,,,,,,,,,,,,,927.4556204,927.4791747,927.4791747,934.4525165,934.4767137,934.9748005,935.7052784,y,0,8.216343584,None,,,,AK,1,2024-11-29_20h28.34.540,soloproject,2024.1.5,None,2024-11-29 20h28.44.871947 +0530/Users/mac/Desktop/0_Solo/mmc5.jpg,,0.8,y,,,,,0,65,65,8,935.7305965,,,,,,,,,,,,,,,,,,,,,,935.7063747,935.7305965,935.7305965,942.7025708,942.7254613,943.4909083,944.1556328,y,0,8.420725917,None,,,,AK,1,2024-11-29_20h28.34.540,soloproject,2024.1.5,None,2024-11-29 20h28.44.871947 +0530/Users/mac/Desktop/0_Solo/flowerbw6.jpg,,1.067,y,,,,,0,66,66,87,944.2219375,,,,,,,,,,,,,,,,,,,,,,944.1566977,944.2219375,944.2219375,951.1527443,951.2204673,952.2097785,952.5299721,n,0,8.304617875,None,,,,AK,1,2024-11-29_20h28.34.540,soloproject,2024.1.5,None,2024-11-29 20h28.44.871947 +0530/Users/mac/Desktop/0_Solo/rockcn6.jpg,,0.8,n,,,,,0,67,67,74,952.5476982,,,,,,,,,,,,,,,,,,,,,,952.5307259,952.5476982,952.5476982,959.5280189,959.5424673,960.3260043,960.5052245,y,0,7.94933,None,,,,AK,1,2024-11-29_20h28.34.540,soloproject,2024.1.5,None,2024-11-29 20h28.44.871947 +0530/Users/mac/Desktop/0_Solo/mmbwn2.jpg,,0.05,n,,,,,0,68,68,18,960.5223076,,,,,,,,,,,,,,,,,,,,,,960.506084,960.5223076,960.5223076,967.5037098,967.5204578,967.5415769,968.2960097,y,0,7.766688584,None,,,,AK,1,2024-11-29_20h28.34.540,soloproject,2024.1.5,None,2024-11-29 20h28.44.871947 +0530/Users/mac/Desktop/0_Solo/mmcn2.jpg,,0.2,n,,,,,0,69,69,29,968.3211645,,,,,,,,,,,,,,,,,,,,,,968.2971112,968.3211645,968.3211645,,,,974.9960495,n,0,6.669299875,None,,,,AK,1,2024-11-29_20h28.34.540,soloproject,2024.1.5,None,2024-11-29 20h28.44.871947 +0530/Users/mac/Desktop/0_Solo/mmbwn1.jpg,,0.2,n,,,,,0,70,70,14,975.0154248,,,,,,,,,,,,,,,,,,,,,,974.996894,975.0154248,975.0154248,981.9952819,982.0100809,982.193794,983.6749579,n,0,8.648464625,None,,,,AK,1,2024-11-29_20h28.34.540,soloproject,2024.1.5,None,2024-11-29 20h28.44.871947 +0530/Users/mac/Desktop/0_Solo/landscapec3.jpg,,0.8,y,,,,,0,71,71,24,983.7366407,,,,,,,,,,,,,,,,,,,,,,983.6760968,983.7366407,983.7366407,990.670094,990.7269757,991.4588181,992.3238408,y,0,8.577789958,None,,,,AK,1,2024-11-29_20h28.34.540,soloproject,2024.1.5,None,2024-11-29 20h28.44.871947 +0530/Users/mac/Desktop/0_Solo/rockbw2.jpg,,0.8,y,,,,,0,72,72,91,992.3535492,,,,,,,,,,,,,,,,,,,,,,992.3248533,992.3535492,992.3535492,999.3208109,999.3436535,1000.110015,1000.766396,y,0,8.408731167,None,,,,AK,1,2024-11-29_20h28.34.540,soloproject,2024.1.5,None,2024-11-29 20h28.44.871947 +0530/Users/mac/Desktop/0_Solo/landscapebwn6.jpg,,0.4,n,,,,,0,73,73,95,1000.816204,,,,,,,,,,,,,,,,,,,,,,1000.767459,1000.816204,1000.816204,1007.767911,1007.809939,1008.16016,1009.357474,n,0,8.532893833,None,,,,AK,1,2024-11-29_20h28.34.540,soloproject,2024.1.5,None,2024-11-29 20h28.44.871947 +0530/Users/mac/Desktop/0_Solo/rockcn3.jpg,,0.2,n,,,,,0,74,74,59,1009.383083,,,,,,,,,,,,,,,,,,,,,,1009.35839,1009.383083,1009.383083,1016.354557,1016.381109,1016.543219,1017.947024,y,0,8.559175542,None,,,,AK,1,2024-11-29_20h28.34.540,soloproject,2024.1.5,None,2024-11-29 20h28.44.871947 +0530/Users/mac/Desktop/0_Solo/flowerbwn2.jpg,,0.05,n,,,,,0,75,75,50,1017.966356,,,,,,,,,,,,,,,,,,,,,,1017.947882,1017.966356,1017.966356,1024.945873,1024.960913,1024.993861,1026.231306,y,0,8.258103542,None,,,,AK,1,2024-11-29_20h28.34.540,soloproject,2024.1.5,None,2024-11-29 20h28.44.871947 +0530/Users/mac/Desktop/0_Solo/flowerbw4.jpg,,0.8,y,,,,,0,76,76,23,1026.263497,,,,,,,,,,,,,,,,,,,,,,1026.232137,1026.263497,1026.263497,1033.230496,1033.262141,1034.02849,1034.729838,y,0,8.460421917,None,,,,AK,1,2024-11-29_20h28.34.540,soloproject,2024.1.5,None,2024-11-29 20h28.44.871947 +0530/Users/mac/Desktop/0_Solo/mmcn6.jpg,,0.05,n,,,,,0,77,77,88,1034.754901,,,,,,,,,,,,,,,,,,,,,,1034.730737,1034.754901,1034.754901,1041.730208,1041.745167,1041.773122,1042.574991,y,0,7.807152917,None,,,,AK,1,2024-11-29_20h28.34.540,soloproject,2024.1.5,None,2024-11-29 20h28.44.871947 +0530/Users/mac/Desktop/0_Solo/rockcn1.jpg,,0.533,n,,,,,0,78,78,22,1042.597778,,,,,,,,,,,,,,,,,,,,,,1042.575863,1042.597778,1042.597778,1049.572758,1049.595386,1050.095302,1050.779391,y,0,8.176761041,None,,,,AK,1,2024-11-29_20h28.34.540,soloproject,2024.1.5,None,2024-11-29 20h28.44.871947 +0530/Users/mac/Desktop/0_Solo/rockcn5.jpg,,0.05,n,,,,,0,79,79,0,1050.801901,,,,,,,,,,,,,,,,,,,,,,1050.780342,1050.801901,1050.801901,1057.773672,1057.796729,1057.811561,1058.780439,y,0,7.97445475,None,,,,AK,1,2024-11-29_20h28.34.540,soloproject,2024.1.5,None,2024-11-29 20h28.44.871947 +0530/Users/mac/Desktop/0_Solo/mmbw3.jpg,,0.533,y,,,,,0,80,80,46,1058.803231,,,,,,,,,,,,,,,,,,,,,,1058.781299,1058.803231,1058.803231,1065.776265,1065.796822,1066.307227,1067.058869,n,0,8.248621208,None,,,,AK,1,2024-11-29_20h28.34.540,soloproject,2024.1.5,None,2024-11-29 20h28.44.871947 +0530/Users/mac/Desktop/0_Solo/landscapebw6.jpg,,0.05,y,,,,,0,81,81,39,1067.081163,,,,,,,,,,,,,,,,,,,,,,1067.059753,1067.081163,1067.081163,1074.057072,1074.074001,1074.096086,1075.581456,n,0,8.495117125,None,,,,AK,1,2024-11-29_20h28.34.540,soloproject,2024.1.5,None,2024-11-29 20h28.44.871947 +0530/Users/mac/Desktop/0_Solo/landscapecn6.jpg,,1.067,n,,,,,0,82,82,69,1075.605635,,,,,,,,,,,,,,,,,,,,,,1075.582466,1075.605635,1075.605635,1082.581281,1082.59538,1083.640973,1083.698833,n,0,8.086193959,None,,,,AK,1,2024-11-29_20h28.34.540,soloproject,2024.1.5,None,2024-11-29 20h28.44.871947 +0530/Users/mac/Desktop/0_Solo/landscapebw3.jpg,,0.8,y,,,,,0,83,83,82,1083.721538,,,,,,,,,,,,,,,,,,,,,,1083.699793,1083.721538,1083.721538,1090.697817,1090.712046,1091.491179,1092.166282,y,0,8.440881625,None,,,,AK,1,2024-11-29_20h28.34.540,soloproject,2024.1.5,None,2024-11-29 20h28.44.871947 +0530/Users/mac/Desktop/0_Solo/rockbw6.jpg,,0.4,y,,,,,0,84,84,80,1092.192906,,,,,,,,,,,,,,,,,,,,,,1092.167359,1092.192906,1092.192906,1099.165782,1099.190766,1099.562993,1100.347259,y,0,8.142427334,None,,,,AK,1,2024-11-29_20h28.34.540,soloproject,2024.1.5,None,2024-11-29 20h28.44.871947 +0530/Users/mac/Desktop/0_Solo/mmbw4.jpg,,0.2,y,,,,,0,85,85,32,1100.378362,,,,,,,,,,,,,,,,,,,,,,1100.34888,1100.378362,1100.378362,1107.350059,1107.374925,1107.546326,1108.3332,n,0,7.94783575,None,,,,AK,1,2024-11-29_20h28.34.540,soloproject,2024.1.5,None,2024-11-29 20h28.44.871947 +0530/Users/mac/Desktop/0_Solo/flowerbw1.jpg,,0.533,y,,,,,0,86,86,72,1108.378698,,,,,,,,,,,,,,,,,,,,,,1108.334149,1108.378698,1108.378698,1115.334664,1115.376887,1115.865537,1116.095926,y,0,7.702758,None,,,,AK,1,2024-11-29_20h28.34.540,soloproject,2024.1.5,None,2024-11-29 20h28.44.871947 +0530/Users/mac/Desktop/0_Solo/landscapebwn2.jpg,,1.067,n,,,,,0,87,87,43,1116.129228,,,,,,,,,,,,,,,,,,,,,,1116.098025,1116.129228,1116.129228,1123.090929,1123.125285,1124.148106,1124.738273,n,0,8.584571042,None,,,,AK,1,2024-11-29_20h28.34.540,soloproject,2024.1.5,None,2024-11-29 20h28.44.871947 +0530/Users/mac/Desktop/0_Solo/flowerc4.jpg,,1.067,y,,,,,0,88,88,90,1124.80496,,,,,,,,,,,,,,,,,,,,,,1124.738956,1124.80496,1124.80496,1131.735607,1131.799681,1132.808753,1133.612567,n,0,8.80445825,None,,,,AK,1,2024-11-29_20h28.34.540,soloproject,2024.1.5,None,2024-11-29 20h28.44.871947 +0530/Users/mac/Desktop/0_Solo/mmcn5.jpg,,0.4,n,,,,,0,89,89,52,1133.64427,,,,,,,,,,,,,,,,,,,,,,1133.614315,1133.64427,1133.64427,1140.608943,1140.642629,1140.998146,1142.478987,y,0,8.821366542,None,,,,AK,1,2024-11-29_20h28.34.540,soloproject,2024.1.5,None,2024-11-29 20h28.44.871947 +0530/Users/mac/Desktop/0_Solo/mmcn1.jpg,,0.05,n,,,,,0,90,90,13,1142.507338,,,,,,,,,,,,,,,,,,,,,,1142.479951,1142.507338,1142.507338,1149.475615,1149.497922,1149.516269,1150.312293,n,0,7.79804625,None,,,,AK,1,2024-11-29_20h28.34.540,soloproject,2024.1.5,None,2024-11-29 20h28.44.871947 +0530/Users/mac/Desktop/0_Solo/rockc2.jpg,,0.2,y,,,,,0,91,91,45,1150.606968,,,,,,,,,,,,,,,,,,,,,,1150.313601,1150.606968,1150.606968,1157.329204,1157.597362,1157.526134,1158.422091,y,0,7.809765083,None,,,,AK,1,2024-11-29_20h28.34.540,soloproject,2024.1.5,None,2024-11-29 20h28.44.871947 +0530/Users/mac/Desktop/0_Solo/rockbw5.jpg,,0.533,y,,,,,0,92,92,68,1158.476932,,,,,,,,,,,,,,,,,,,,,,1158.423686,1158.476932,1158.476932,1165.417766,1165.465192,1165.948263,1166.662495,n,0,8.178701708,None,,,,AK,1,2024-11-29_20h28.34.540,soloproject,2024.1.5,None,2024-11-29 20h28.44.871947 +0530/Users/mac/Desktop/0_Solo/landscapebwn5.jpg,,1.067,n,,,,,0,93,93,9,1166.711403,,,,,,,,,,,,,,,,,,,,,,1166.663371,1166.711403,1166.711403,1173.659914,1173.710344,1174.715583,1175.230475,y,0,8.506123541,None,,,,AK,1,2024-11-29_20h28.34.540,soloproject,2024.1.5,None,2024-11-29 20h28.44.871947 +0530/Users/mac/Desktop/0_Solo/flowerbw2.jpg,,0.05,y,,,,,0,94,94,34,1175.26696,,,,,,,,,,,,,,,,,,,,,,1175.231386,1175.26696,1175.26696,1182.226653,1182.260407,1182.265487,1183.068445,y,0,7.794540625,None,,,,AK,1,2024-11-29_20h28.34.540,soloproject,2024.1.5,None,2024-11-29 20h28.44.871947 +0530/Users/mac/Desktop/0_Solo/landscapec5.jpg,,0.4,y,,,,,0,95,95,89,1183.092682,,,,,,,,,,,,,,,,,,,,,,1183.069349,1183.092682,1183.092682,1190.068367,1190.082301,1190.461,1191.201917,y,0,8.105431791,None,,,,AK,1,2024-11-29_20h28.34.540,soloproject,2024.1.5,None,2024-11-29 20h28.44.871947 +0530,,,,,,,,,,,,,,,,,,,,,,,,,,,,,,,,,,,,,,,,,,,,,1191.202777,1191.22241,1191.71064,AK,1,2024-11-29_20h28.34.540,soloproject,2024.1.5,None,2024-11-29 20h28.44.871947 +0530