image,type,duration,corr_ans,trials.thisRepN,trials.thisTrialN,trials.thisN,trials.thisIndex,trials_2.thisRepN,trials_2.thisTrialN,trials_2.thisN,trials_2.thisIndex,thisRow.t,notes,instructions.started,text.started,key_resp_2.started,instructions.stopped,key_resp_2.keys,key_resp_2.rt,key_resp_2.duration,original.started,fixation1.started,image1.started,fixation1.stopped,image1.stopped,original.stopped,instructions2.started,text_2.started,keyresp.started,instructions2.stopped,keyresp.keys,keyresp.rt,keyresp.duration,mixed.started,fixation2.started,key_resp.started,image_2.started,fixation2.stopped,image_2.stopped,mixed.stopped,key_resp.keys,key_resp.corr,key_resp.rt,key_resp.duration,thanks.started,text_3.started,thanks.stopped,participant,session,date,expName,psychopyVersion,frameRate,expStart,,,,,,,,,,,,,,0.010002542,0.029699917,0.029699917,22.63420896,space,22.59367846,None,,,,,,,,,,,,,,,,,,,,,,,,,,,,NS,1,2024-11-29_20h50.08.630,soloproject,2024.1.5,None,2024-11-29 20h50.20.598882 +0530/Users/mac/Desktop/0_Solo/mmc5.jpg,colour,0.2,,0,0,0,34,,,,,22.72187117,,,,,,,,,22.67918004,22.72187117,29.63568012,29.71540946,29.84722688,29.82282529,,,,,,,,,,,,,,,,,,,,,,NS,1,2024-11-29_20h50.08.630,soloproject,2024.1.5,None,2024-11-29 20h50.20.598882 +0530/Users/mac/Desktop/0_Solo/mmc6.jpg,colour,1.067,,0,1,1,9,,,,,29.84722688,,,,,,,,,29.82326133,29.84722688,36.81502242,36.83705404,37.88668029,37.86608421,,,,,,,,,,,,,,,,,,,,,,NS,1,2024-11-29_20h50.08.630,soloproject,2024.1.5,None,2024-11-29 20h50.20.598882 +0530/Users/mac/Desktop/0_Solo/flowerbw2.jpg,bnw,0.533,,0,2,2,15,,,,,37.88668029,,,,,,,,,37.86632875,37.88668029,44.85777617,44.88250104,45.42751233,45.38314358,,,,,,,,,,,,,,,,,,,,,,NS,1,2024-11-29_20h50.08.630,soloproject,2024.1.5,None,2024-11-29 20h50.20.598882 +0530/Users/mac/Desktop/0_Solo/flowerc2.jpg,colour,0.4,,0,3,3,4,,,,,45.42751233,,,,,,,,,45.38368888,45.42751233,52.38210946,52.4213895,52.80056779,52.76708308,,,,,,,,,,,,,,,,,,,,,,NS,1,2024-11-29_20h50.08.630,soloproject,2024.1.5,None,2024-11-29 20h50.20.598882 +0530/Users/mac/Desktop/0_Solo/flowerbw4.jpg,bnw,0.2,,0,4,4,5,,,,,52.80056779,,,,,,,,,52.76795754,52.80056779,59.76603067,59.79954442,59.97254479,59.95023329,,,,,,,,,,,,,,,,,,,,,,NS,1,2024-11-29_20h50.08.630,soloproject,2024.1.5,None,2024-11-29 20h50.20.598882 +0530/Users/mac/Desktop/0_Solo/mmc4.jpg,colour,0.05,,0,5,5,19,,,,,59.97254479,,,,,,,,,59.95074417,59.97254479,66.94045754,66.96643925,67.00634267,66.98379875,,,,,,,,,,,,,,,,,,,,,,NS,1,2024-11-29_20h50.08.630,soloproject,2024.1.5,None,2024-11-29 20h50.20.598882 +0530/Users/mac/Desktop/0_Solo/mmc2.jpg,colour,0.8,,0,6,6,46,,,,,67.00634267,,,,,,,,,66.98419013,67.00634267,73.97458075,74.00547242,74.84057575,74.76776033,,,,,,,,,,,,,,,,,,,,,,NS,1,2024-11-29_20h50.08.630,soloproject,2024.1.5,None,2024-11-29 20h50.20.598882 +0530/Users/mac/Desktop/0_Solo/flowerc1.jpg,colour,0.8,,0,7,7,32,,,,,74.84057575,,,,,,,,,74.76840817,74.84057575,81.76585725,81.83361671,82.61768092,82.55095504,,,,,,,,,,,,,,,,,,,,,,NS,1,2024-11-29_20h50.08.630,soloproject,2024.1.5,None,2024-11-29 20h50.20.598882 +0530/Users/mac/Desktop/0_Solo/flowerc3.jpg,colour,0.05,,0,8,8,35,,,,,82.61768092,,,,,,,,,82.55147254,82.61768092,89.54531138,89.62824429,89.58919525,89.60093963,,,,,,,,,,,,,,,,,,,,,,NS,1,2024-11-29_20h50.08.630,soloproject,2024.1.5,None,2024-11-29 20h50.20.598882 +0530/Users/mac/Desktop/0_Solo/landscapec6.jpg,colour,1.067,,0,9,9,18,,,,,89.62824429,,,,,,,,,89.60208525,89.62824429,96.5916295,96.62241504,97.68345104,97.64167188,,,,,,,,,,,,,,,,,,,,,,NS,1,2024-11-29_20h50.08.630,soloproject,2024.1.5,None,2024-11-29 20h50.20.598882 +0530/Users/mac/Desktop/0_Solo/rockbw1.jpg,bnw,0.4,,0,10,10,12,,,,,97.68345104,,,,,,,,,97.64222079,97.68345104,104.6444351,104.6844745,105.0637498,105.0347032,,,,,,,,,,,,,,,,,,,,,,NS,1,2024-11-29_20h50.08.630,soloproject,2024.1.5,None,2024-11-29 20h50.20.598882 +0530/Users/mac/Desktop/0_Solo/landscapebw2.jpg,bnw,0.05,,0,11,11,47,,,,,105.0637498,,,,,,,,,105.0361649,105.0637498,112.0260011,112.0565126,112.0918814,112.0685342,,,,,,,,,,,,,,,,,,,,,,NS,1,2024-11-29_20h50.08.630,soloproject,2024.1.5,None,2024-11-29 20h50.20.598882 +0530/Users/mac/Desktop/0_Solo/rockbw6.jpg,bnw,0.4,,0,12,12,8,,,,,112.0918814,,,,,,,,,112.0691319,112.0918814,119.0588228,119.0846779,119.4658365,119.4421347,,,,,,,,,,,,,,,,,,,,,,NS,1,2024-11-29_20h50.08.630,soloproject,2024.1.5,None,2024-11-29 20h50.20.598882 +0530/Users/mac/Desktop/0_Solo/mmbw1.jpg,bnw,0.4,,0,13,13,30,,,,,119.4658365,,,,,,,,,119.4426353,119.4658365,126.4424651,126.45649,126.8479688,126.8261077,,,,,,,,,,,,,,,,,,,,,,NS,1,2024-11-29_20h50.08.630,soloproject,2024.1.5,None,2024-11-29 20h50.20.598882 +0530/Users/mac/Desktop/0_Solo/rockc1.jpg,colour,0.8,,0,14,14,16,,,,,126.8479688,,,,,,,,,126.8266191,126.8479688,133.8264363,133.8391339,134.6458145,134.6192016,,,,,,,,,,,,,,,,,,,,,,NS,1,2024-11-29_20h50.08.630,soloproject,2024.1.5,None,2024-11-29 20h50.20.598882 +0530/Users/mac/Desktop/0_Solo/rockbw5.jpg,bnw,0.05,,0,15,15,41,,,,,134.6458145,,,,,,,,,134.6199292,134.6458145,141.6109566,141.6406707,141.7209727,141.6526599,,,,,,,,,,,,,,,,,,,,,,NS,1,2024-11-29_20h50.08.630,soloproject,2024.1.5,None,2024-11-29 20h50.20.598882 +0530/Users/mac/Desktop/0_Solo/flowerc5.jpg,colour,0.2,,0,16,16,11,,,,,141.7209727,,,,,,,,,141.6532747,141.7209727,148.6441225,148.7190053,148.858875,148.8365283,,,,,,,,,,,,,,,,,,,,,,NS,1,2024-11-29_20h50.08.630,soloproject,2024.1.5,None,2024-11-29 20h50.20.598882 +0530/Users/mac/Desktop/0_Solo/flowerbw5.jpg,bnw,0.533,,0,17,17,22,,,,,148.858875,,,,,,,,,148.8371342,148.858875,155.826743,155.8523771,156.3640929,156.342972,,,,,,,,,,,,,,,,,,,,,,NS,1,2024-11-29_20h50.08.630,soloproject,2024.1.5,None,2024-11-29 20h50.20.598882 +0530/Users/mac/Desktop/0_Solo/landscapebw4.jpg,bnw,0.2,,0,18,18,14,,,,,156.3640929,,,,,,,,,156.3435131,156.3640929,163.3433517,163.356854,163.6808014,163.5268177,,,,,,,,,,,,,,,,,,,,,,NS,1,2024-11-29_20h50.08.630,soloproject,2024.1.5,None,2024-11-29 20h50.20.598882 +0530/Users/mac/Desktop/0_Solo/mmc1.jpg,colour,1.067,,0,19,19,13,,,,,163.6808014,,,,,,,,,163.5273179,163.6808014,170.5349255,170.67446,171.6478907,171.5872805,,,,,,,,,,,,,,,,,,,,,,NS,1,2024-11-29_20h50.08.630,soloproject,2024.1.5,None,2024-11-29 20h50.20.598882 +0530/Users/mac/Desktop/0_Solo/landscapec3.jpg,colour,0.533,,0,20,20,6,,,,,171.6478907,,,,,,,,,171.5886662,171.6478907,178.5778194,178.6415718,179.1265425,179.104016,,,,,,,,,,,,,,,,,,,,,,NS,1,2024-11-29_20h50.08.630,soloproject,2024.1.5,None,2024-11-29 20h50.20.598882 +0530/Users/mac/Desktop/0_Solo/mmbw5.jpg,bnw,0.2,,0,21,21,45,,,,,179.1265425,,,,,,,,,179.1045144,179.1265425,186.1031279,186.1199863,186.3093615,186.2876828,,,,,,,,,,,,,,,,,,,,,,NS,1,2024-11-29_20h50.08.630,soloproject,2024.1.5,None,2024-11-29 20h50.20.598882 +0530/Users/mac/Desktop/0_Solo/landscapebw2.jpg,bnw,0.8,,0,22,22,10,,,,,186.3093615,,,,,,,,,186.288243,186.3093615,193.286556,193.3032816,194.3521094,194.0712732,,,,,,,,,,,,,,,,,,,,,,NS,1,2024-11-29_20h50.08.630,soloproject,2024.1.5,None,2024-11-29 20h50.20.598882 +0530/Users/mac/Desktop/0_Solo/rockc2.jpg,colour,0.533,,0,23,23,31,,,,,194.3521094,,,,,,,,,194.0717925,194.3521094,201.0766638,201.3426359,201.6473059,201.5934456,,,,,,,,,,,,,,,,,,,,,,NS,1,2024-11-29_20h50.08.630,soloproject,2024.1.5,None,2024-11-29 20h50.20.598882 +0530/Users/mac/Desktop/0_Solo/flowerbw1.jpg,bnw,0.2,,0,24,24,26,,,,,201.6473059,,,,,,,,,201.5947978,201.6473059,208.5868727,208.6427922,208.7947018,208.771269,,,,,,,,,,,,,,,,,,,,,,NS,1,2024-11-29_20h50.08.630,soloproject,2024.1.5,None,2024-11-29 20h50.20.598882 +0530/Users/mac/Desktop/0_Solo/mmc3.jpg,colour,1.067,,0,25,25,3,,,,,208.7947018,,,,,,,,,208.7717853,208.7947018,215.7625057,215.7931302,216.8957765,216.8214077,,,,,,,,,,,,,,,,,,,,,,NS,1,2024-11-29_20h50.08.630,soloproject,2024.1.5,None,2024-11-29 20h50.20.598882 +0530/Users/mac/Desktop/0_Solo/landscapec2.jpg,colour,0.4,,0,26,26,40,,,,,216.8957765,,,,,,,,,216.8219293,216.8957765,223.8132118,223.8926266,224.2650194,224.2052879,,,,,,,,,,,,,,,,,,,,,,NS,1,2024-11-29_20h50.08.630,soloproject,2024.1.5,None,2024-11-29 20h50.20.598882 +0530/Users/mac/Desktop/0_Solo/flowerc4.jpg,colour,0.05,,0,27,27,28,,,,,224.2650194,,,,,,,,,224.2057933,224.2650194,231.1991017,231.277374,231.243652,231.2553203,,,,,,,,,,,,,,,,,,,,,,NS,1,2024-11-29_20h50.08.630,soloproject,2024.1.5,None,2024-11-29 20h50.20.598882 +0530/Users/mac/Desktop/0_Solo/landscapec4.jpg,colour,0.4,,0,28,28,23,,,,,231.277374,,,,,,,,,231.2559149,231.277374,238.2549587,238.2713572,238.6612685,238.6392073,,,,,,,,,,,,,,,,,,,,,,NS,1,2024-11-29_20h50.08.630,soloproject,2024.1.5,None,2024-11-29 20h50.20.598882 +0530/Users/mac/Desktop/0_Solo/landscapebw5.jpg,bnw,0.533,,0,29,29,1,,,,,238.6612685,,,,,,,,,238.6397015,238.6612685,245.6302347,245.6552398,246.1761358,246.1562555,,,,,,,,,,,,,,,,,,,,,,NS,1,2024-11-29_20h50.08.630,soloproject,2024.1.5,None,2024-11-29 20h50.20.598882 +0530/Users/mac/Desktop/0_Solo/landscapebw6.jpg,bnw,0.533,,0,30,30,38,,,,,246.1761358,,,,,,,,,246.156906,246.1761358,253.154506,253.1718559,253.6955597,253.6729975,,,,,,,,,,,,,,,,,,,,,,NS,1,2024-11-29_20h50.08.630,soloproject,2024.1.5,None,2024-11-29 20h50.20.598882 +0530/Users/mac/Desktop/0_Solo/rockc4.jpg,colour,0.05,,0,31,31,2,,,,,253.6955597,,,,,,,,,253.673498,253.6955597,260.6634142,260.7056422,260.7256302,260.7064174,,,,,,,,,,,,,,,,,,,,,,NS,1,2024-11-29_20h50.08.630,soloproject,2024.1.5,None,2024-11-29 20h50.20.598882 +0530/Users/mac/Desktop/0_Solo/mmbw4.jpg,bnw,0.05,,0,32,32,17,,,,,260.7256302,,,,,,,,,260.706837,260.7256302,267.696563,267.7225411,267.799096,267.739848,,,,,,,,,,,,,,,,,,,,,,NS,1,2024-11-29_20h50.08.630,soloproject,2024.1.5,None,2024-11-29 20h50.20.598882 +0530/Users/mac/Desktop/0_Solo/rockbw4.jpg,bnw,0.8,,0,33,33,29,,,,,267.799096,,,,,,,,,267.7403472,267.799096,274.7309163,274.79486,275.5483758,275.5233771,,,,,,,,,,,,,,,,,,,,,,NS,1,2024-11-29_20h50.08.630,soloproject,2024.1.5,None,2024-11-29 20h50.20.598882 +0530/Users/mac/Desktop/0_Solo/mmbw6.jpg,bnw,0.533,,0,34,34,24,,,,,275.5483758,,,,,,,,,275.5240853,275.5483758,282.5140894,282.5447423,283.0607757,283.0404739,,,,,,,,,,,,,,,,,,,,,,NS,1,2024-11-29_20h50.08.630,soloproject,2024.1.5,None,2024-11-29 20h50.20.598882 +0530/Users/mac/Desktop/0_Solo/landscapebw1.jpg,bnw,0.8,,0,35,35,21,,,,,283.0607757,,,,,,,,,283.0410585,283.0607757,290.0310566,290.0558185,290.9184068,290.8239256,,,,,,,,,,,,,,,,,,,,,,NS,1,2024-11-29_20h50.08.630,soloproject,2024.1.5,None,2024-11-29 20h50.20.598882 +0530/Users/mac/Desktop/0_Solo/rockc5.jpg,colour,0.2,,0,36,36,20,,,,,290.9184068,,,,,,,,,290.8244199,290.9184068,297.8214639,297.9119371,298.0304993,298.0074398,,,,,,,,,,,,,,,,,,,,,,NS,1,2024-11-29_20h50.08.630,soloproject,2024.1.5,None,2024-11-29 20h50.20.598882 +0530/Users/mac/Desktop/0_Solo/landscapebw3.jpg,bnw,0.533,,0,37,37,42,,,,,298.0304993,,,,,,,,,298.0079469,298.0304993,304.9973806,305.0290965,305.5450832,305.524566,,,,,,,,,,,,,,,,,,,,,,NS,1,2024-11-29_20h50.08.630,soloproject,2024.1.5,None,2024-11-29 20h50.20.598882 +0530/Users/mac/Desktop/0_Solo/landscapec5.jpg,colour,0.4,,0,38,38,27,,,,,305.5450832,,,,,,,,,305.5253,305.5450832,312.5154682,312.5404176,312.9388474,312.9079062,,,,,,,,,,,,,,,,,,,,,,NS,1,2024-11-29_20h50.08.630,soloproject,2024.1.5,None,2024-11-29 20h50.20.598882 +0530/Users/mac/Desktop/0_Solo/rockc6.jpg,colour,1.067,,0,39,39,25,,,,,312.9388474,,,,,,,,,312.9084158,312.9388474,319.8981849,319.9296333,321.0339483,320.9585038,,,,,,,,,,,,,,,,,,,,,,NS,1,2024-11-29_20h50.08.630,soloproject,2024.1.5,None,2024-11-29 20h50.20.598882 +0530/Users/mac/Desktop/0_Solo/rockc3.jpg,colour,1.067,,0,40,40,36,,,,,321.0339483,,,,,,,,,320.9591663,321.0339483,327.9572134,328.0298312,329.0796343,329.007781,,,,,,,,,,,,,,,,,,,,,,NS,1,2024-11-29_20h50.08.630,soloproject,2024.1.5,None,2024-11-29 20h50.20.598882 +0530/Users/mac/Desktop/0_Solo/flowerc6.jpg,colour,0.8,,0,41,41,0,,,,,329.0796343,,,,,,,,,329.0083263,329.0796343,335.9997502,336.074588,336.8179908,336.7920587,,,,,,,,,,,,,,,,,,,,,,NS,1,2024-11-29_20h50.08.630,soloproject,2024.1.5,None,2024-11-29 20h50.20.598882 +0530/Users/mac/Desktop/0_Solo/rockbw2.jpg,bnw,0.8,,0,42,42,37,,,,,336.8179908,,,,,,,,,336.7929186,336.8179908,343.7909467,343.8133015,344.7387135,344.5754507,,,,,,,,,,,,,,,,,,,,,,NS,1,2024-11-29_20h50.08.630,soloproject,2024.1.5,None,2024-11-29 20h50.20.598882 +0530/Users/mac/Desktop/0_Solo/landscapec1.jpg,colour,1.067,,0,43,43,33,,,,,344.7387135,,,,,,,,,344.5759839,344.7387135,351.5692323,351.7300506,352.6789599,352.6260933,,,,,,,,,,,,,,,,,,,,,,NS,1,2024-11-29_20h50.08.630,soloproject,2024.1.5,None,2024-11-29 20h50.20.598882 +0530/Users/mac/Desktop/0_Solo/rockbw3.jpg,bnw,1.067,,0,44,44,44,,,,,352.6789599,,,,,,,,,352.6267369,352.6789599,359.6166929,359.675325,360.7361737,360.6764628,,,,,,,,,,,,,,,,,,,,,,NS,1,2024-11-29_20h50.08.630,soloproject,2024.1.5,None,2024-11-29 20h50.20.598882 +0530/Users/mac/Desktop/0_Solo/flowerbw3.jpg,bnw,0.4,,0,45,45,43,,,,,360.7361737,,,,,,,,,360.6770584,360.7361737,367.6745213,367.7308387,368.0824289,368.059496,,,,,,,,,,,,,,,,,,,,,,NS,1,2024-11-29_20h50.08.630,soloproject,2024.1.5,None,2024-11-29 20h50.20.598882 +0530/Users/mac/Desktop/0_Solo/mmbw2.jpg,bnw,0.05,,0,46,46,7,,,,,368.0824289,,,,,,,,,368.0600306,368.0824289,375.049888,375.0757156,375.1479655,375.0930486,,,,,,,,,,,,,,,,,,,,,,NS,1,2024-11-29_20h50.08.630,soloproject,2024.1.5,None,2024-11-29 20h50.20.598882 +0530/Users/mac/Desktop/0_Solo/flowerbw6.jpg,bnw,0.2,,0,47,47,39,,,,,375.1479655,,,,,,,,,375.0934332,375.1479655,382.0840873,382.1426673,382.2927274,382.2762267,,,,,,,,,,,,,,,,,,,,,,NS,1,2024-11-29_20h50.08.630,soloproject,2024.1.5,None,2024-11-29 20h50.20.598882 +0530,,,,,,,,,,,,,,,,,,,,,,,,,,,382.2766375,382.2927274,382.2927274,390.6766533,space,8.340629417,None,,,,,,,,,,,,,,,NS,1,2024-11-29_20h50.08.630,soloproject,2024.1.5,None,2024-11-29 20h50.20.598882 +0530/Users/mac/Desktop/0_Solo/flowerbw1.jpg,,0.533,y,,,,,0,0,0,72,390.9122349,,,,,,,,,,,,,,,,,,,,,,390.7106586,390.9122349,390.9122349,397.6692549,397.9096312,398.1982836,400.2191269,n,0,9.304010042,None,,,,NS,1,2024-11-29_20h50.08.630,soloproject,2024.1.5,None,2024-11-29 20h50.20.598882 +0530/Users/mac/Desktop/0_Solo/landscapecn6.jpg,,1.067,n,,,,,0,1,1,69,400.2477731,,,,,,,,,,,,,,,,,,,,,,400.2227559,400.2477731,400.2477731,407.2184232,407.2434147,,407.8851524,y,0,7.633827459,None,,,,NS,1,2024-11-29_20h50.08.630,soloproject,2024.1.5,None,2024-11-29 20h50.20.598882 +0530/Users/mac/Desktop/0_Solo/rockc1.jpg,,0.8,y,,,,,0,2,2,47,407.9092784,,,,,,,,,,,,,,,,,,,,,,407.8860056,407.9092784,407.9092784,414.8854866,414.8979122,415.6821549,416.5306249,y,0,8.614817209,None,,,,NS,1,2024-11-29_20h50.08.630,soloproject,2024.1.5,None,2024-11-29 20h50.20.598882 +0530/Users/mac/Desktop/0_Solo/flowercn5.jpg,,1.067,n,,,,,0,3,3,21,416.5654496,,,,,,,,,,,,,,,,,,,,,,416.53227,416.5654496,416.5654496,423.526128,423.5606294,424.5825581,425.1023805,n,0,8.531783875,None,,,,NS,1,2024-11-29_20h50.08.630,soloproject,2024.1.5,None,2024-11-29 20h50.20.598882 +0530/Users/mac/Desktop/0_Solo/flowerbw4.jpg,,0.8,y,,,,,0,4,4,23,425.1399708,,,,,,,,,,,,,,,,,,,,,,425.1032283,425.1399708,425.1399708,432.1020926,432.133103,432.9004954,434.4893198,n,0,9.343649583,None,,,,NS,1,2024-11-29_20h50.08.630,soloproject,2024.1.5,None,2024-11-29 20h50.20.598882 +0530/Users/mac/Desktop/0_Solo/landscapecn2.jpg,,0.4,n,,,,,0,5,5,25,434.5656132,,,,,,,,,,,,,,,,,,,,,,434.4910614,434.5656132,434.5656132,441.4885783,441.5610623,441.8828433,442.9800516,y,0,8.4029325,None,,,,NS,1,2024-11-29_20h50.08.630,soloproject,2024.1.5,None,2024-11-29 20h50.20.598882 +0530/Users/mac/Desktop/0_Solo/mmbwn4.jpg,,0.2,n,,,,,0,6,6,94,443.0094583,,,,,,,,,,,,,,,,,,,,,,442.9812405,443.0094583,443.0094583,449.9774758,450.000112,450.1665909,451.2312945,n,0,8.212976708,None,,,,NS,1,2024-11-29_20h50.08.630,soloproject,2024.1.5,None,2024-11-29 20h50.20.598882 +0530/Users/mac/Desktop/0_Solo/flowerbwn4.jpg,,0.2,n,,,,,0,7,7,84,451.2607093,,,,,,,,,,,,,,,,,,,,,,451.2329778,451.2607093,451.2607093,458.227232,458.2502925,458.4167909,459.4581614,n,0,8.193391292,None,,,,NS,1,2024-11-29_20h50.08.630,soloproject,2024.1.5,None,2024-11-29 20h50.20.598882 +0530/Users/mac/Desktop/0_Solo/landscapebwn1.jpg,,0.05,n,,,,,0,8,8,10,459.4973066,,,,,,,,,,,,,,,,,,,,,,459.4591319,459.4973066,459.4973066,466.4540033,466.4950275,466.5002069,467.9880434,y,0,8.484469708,None,,,,NS,1,2024-11-29_20h50.08.630,soloproject,2024.1.5,None,2024-11-29 20h50.20.598882 +0530/Users/mac/Desktop/0_Solo/mmcn2.jpg,,0.2,n,,,,,0,9,9,29,468.0066586,,,,,,,,,,,,,,,,,,,,,,467.9885593,468.0066586,468.0066586,474.9868422,474.9990537,475.184063,476.0688241,n,0,8.059153792,None,,,,NS,1,2024-11-29_20h50.08.630,soloproject,2024.1.5,None,2024-11-29 20h50.20.598882 +0530/Users/mac/Desktop/0_Solo/landscapebw5.jpg,,0.2,y,,,,,0,10,10,75,476.0953427,,,,,,,,,,,,,,,,,,,,,,476.0698111,476.0953427,476.0953427,483.0613173,483.0834802,483.2517088,484.3541647,n,0,8.253114917,None,,,,NS,1,2024-11-29_20h50.08.630,soloproject,2024.1.5,None,2024-11-29 20h50.20.598882 +0530/Users/mac/Desktop/0_Solo/rockcn2.jpg,,1.067,n,,,,,0,11,11,40,484.3801465,,,,,,,,,,,,,,,,,,,,,,484.3551526,484.3801465,484.3801465,491.3542445,491.3793625,492.4176869,492.4649892,n,0,8.066904334,None,,,,NS,1,2024-11-29_20h50.08.630,soloproject,2024.1.5,None,2024-11-29 20h50.20.598882 +0530/Users/mac/Desktop/0_Solo/mmc2.jpg,,0.4,y,,,,,0,12,12,55,492.497947,,,,,,,,,,,,,,,,,,,,,,492.4666999,492.497947,492.497947,499.4616806,499.4960371,499.8518632,506.7320757,n,0,14.22828442,None,,,,NS,1,2024-11-29_20h50.08.630,soloproject,2024.1.5,None,2024-11-29 20h50.20.598882 +0530/Users/mac/Desktop/0_Solo/mmbw6.jpg,,0.4,y,,,,,0,13,13,38,506.7587462,,,,,,,,,,,,,,,,,,,,,,506.7332259,506.7587462,506.7587462,513.7296232,513.7508875,514.1183874,515.365938,n,0,8.596957167,None,,,,NS,1,2024-11-29_20h50.08.630,soloproject,2024.1.5,None,2024-11-29 20h50.20.598882 +0530/Users/mac/Desktop/0_Solo/landscapebw2.jpg,,0.4,y,,,,,0,14,14,19,515.3913806,,,,,,,,,,,,,,,,,,,,,,515.3670226,515.3913806,515.3913806,522.3622451,522.3855035,522.7522202,524.2844123,n,0,8.878368667,None,,,,NS,1,2024-11-29_20h50.08.630,soloproject,2024.1.5,None,2024-11-29 20h50.20.598882 +0530/Users/mac/Desktop/0_Solo/rockcn6.jpg,,0.8,n,,,,,0,15,15,74,524.312961,,,,,,,,,,,,,,,,,,,,,,524.2854685,524.312961,524.312961,531.2797804,531.3021457,532.0687918,532.8874548,n,0,8.56906875,None,,,,NS,1,2024-11-29_20h50.08.630,soloproject,2024.1.5,None,2024-11-29 20h50.20.598882 +0530/Users/mac/Desktop/0_Solo/landscapec2.jpg,,0.2,y,,,,,0,16,16,20,532.9630837,,,,,,,,,,,,,,,,,,,,,,532.8883044,532.9630837,532.9630837,539.879318,539.952607,540.0682378,540.8211892,y,0,7.852634167,None,,,,NS,1,2024-11-29_20h50.08.630,soloproject,2024.1.5,None,2024-11-29 20h50.20.598882 +0530/Users/mac/Desktop/0_Solo/rockbwn4.jpg,,0.2,n,,,,,0,17,17,53,540.8481548,,,,,,,,,,,,,,,,,,,,,,540.8220509,540.8481548,540.8481548,547.8225408,547.8475055,548.0194049,549.283481,y,0,8.425343125,None,,,,NS,1,2024-11-29_20h50.08.630,soloproject,2024.1.5,None,2024-11-29 20h50.20.598882 +0530/Users/mac/Desktop/0_Solo/rockc2.jpg,,0.2,y,,,,,0,18,18,45,549.5632466,,,,,,,,,,,,,,,,,,,,,,549.2849706,549.5632466,549.5632466,556.284349,556.5522363,556.4800733,558.6996617,y,0,9.126495125,None,,,,NS,1,2024-11-29_20h50.08.630,soloproject,2024.1.5,None,2024-11-29 20h50.20.598882 +0530/Users/mac/Desktop/0_Solo/mmcn4.jpg,,1.067,n,,,,,0,19,19,28,558.7398688,,,,,,,,,,,,,,,,,,,,,,558.7005302,558.7398688,558.7398688,565.6974765,565.7366765,566.754351,567.338889,y,0,8.595635875,None,,,,NS,1,2024-11-29_20h50.08.630,soloproject,2024.1.5,None,2024-11-29 20h50.20.598882 +0530/Users/mac/Desktop/0_Solo/rockbwn2.jpg,,0.533,n,,,,,0,20,20,17,567.3651843,,,,,,,,,,,,,,,,,,,,,,567.3399342,567.3651843,567.3651843,574.3391987,574.364931,574.8699071,575.8232658,y,0,8.454723959,None,,,,NS,1,2024-11-29_20h50.08.630,soloproject,2024.1.5,None,2024-11-29 20h50.20.598882 +0530/Users/mac/Desktop/0_Solo/flowerbw6.jpg,,1.067,y,,,,,0,21,21,87,575.885149,,,,,,,,,,,,,,,,,,,,,,575.8243763,575.885149,575.885149,582.8253622,582.8818008,583.8880778,586.1019587,n,0,10.20943233,None,,,,NS,1,2024-11-29_20h50.08.630,soloproject,2024.1.5,None,2024-11-29 20h50.20.598882 +0530/Users/mac/Desktop/0_Solo/rockcn5.jpg,,0.05,n,,,,,0,22,22,0,586.1360778,,,,,,,,,,,,,,,,,,,,,,586.1037643,586.1360778,586.1360778,593.0978763,593.132219,593.136929,601.4915648,y,0,15.35207287,None,,,,NS,1,2024-11-29_20h50.08.630,soloproject,2024.1.5,None,2024-11-29 20h50.20.598882 +0530/Users/mac/Desktop/0_Solo/landscapebwn2.jpg,,1.067,n,,,,,0,23,23,43,601.5181038,,,,,,,,,,,,,,,,,,,,,,601.492446,601.5181038,601.5181038,608.4905363,608.5159199,609.5550634,610.1081271,n,0,8.585841459,None,,,,NS,1,2024-11-29_20h50.08.630,soloproject,2024.1.5,None,2024-11-29 20h50.20.598882 +0530/Users/mac/Desktop/0_Solo/flowerc4.jpg,,1.067,y,,,,,0,24,24,90,610.1816678,,,,,,,,,,,,,,,,,,,,,,610.1090018,610.1816678,610.1816678,617.1067449,617.1709442,618.1715785,618.573181,n,0,8.385925,None,,,,NS,1,2024-11-29_20h50.08.630,soloproject,2024.1.5,None,2024-11-29 20h50.20.598882 +0530/Users/mac/Desktop/0_Solo/mmbwn5.jpg,,0.8,n,,,,,0,25,25,37,618.5968155,,,,,,,,,,,,,,,,,,,,,,618.5737311,618.5968155,618.5968155,625.5654704,625.5887154,626.3556785,627.1925378,n,0,8.589758459,None,,,,NS,1,2024-11-29_20h50.08.630,soloproject,2024.1.5,None,2024-11-29 20h50.20.598882 +0530/Users/mac/Desktop/0_Solo/rockbwn6.jpg,,0.8,n,,,,,0,26,26,16,627.2184048,,,,,,,,,,,,,,,,,,,,,,627.1937524,627.2184048,627.2184048,634.1913475,634.216933,634.9889141,635.4690515,n,0,8.240332708,None,,,,NS,1,2024-11-29_20h50.08.630,soloproject,2024.1.5,None,2024-11-29 20h50.20.598882 +0530/Users/mac/Desktop/0_Solo/mmc3.jpg,,1.067,y,,,,,0,27,27,56,635.4939892,,,,,,,,,,,,,,,,,,,,,,635.4701084,635.4939892,635.4939892,642.4660422,642.4887779,643.522434,643.6751505,y,0,8.177966708,None,,,,NS,1,2024-11-29_20h50.08.630,soloproject,2024.1.5,None,2024-11-29 20h50.20.598882 +0530/Users/mac/Desktop/0_Solo/landscapebwn4.jpg,,0.4,n,,,,,0,28,28,11,643.7189025,,,,,,,,,,,,,,,,,,,,,,643.676275,643.7189025,643.7189025,650.6751507,650.7173515,651.073102,652.0515319,y,0,8.305387167,None,,,,NS,1,2024-11-29_20h50.08.630,soloproject,2024.1.5,None,2024-11-29 20h50.20.598882 +0530/Users/mac/Desktop/0_Solo/flowerc6.jpg,,0.05,y,,,,,0,29,29,26,652.1177009,,,,,,,,,,,,,,,,,,,,,,652.0525968,652.1177009,652.1177009,659.0499046,659.1055187,659.090115,659.8748899,n,0,7.7523145,None,,,,NS,1,2024-11-29_20h50.08.630,soloproject,2024.1.5,None,2024-11-29 20h50.20.598882 +0530/Users/mac/Desktop/0_Solo/flowerc2.jpg,,1.067,y,,,,,0,30,30,76,659.9185331,,,,,,,,,,,,,,,,,,,,,,659.8758777,659.9185331,659.9185331,666.876181,666.9178347,,667.7858855,y,0,7.858496042,None,,,,NS,1,2024-11-29_20h50.08.630,soloproject,2024.1.5,None,2024-11-29 20h50.20.598882 +0530/Users/mac/Desktop/0_Solo/rockcn3.jpg,,0.2,n,,,,,0,31,31,59,667.8101685,,,,,,,,,,,,,,,,,,,,,,667.7866997,667.8101685,667.8101685,674.784133,674.805818,674.9743452,676.0368293,y,0,8.218831125,None,,,,NS,1,2024-11-29_20h50.08.630,soloproject,2024.1.5,None,2024-11-29 20h50.20.598882 +0530/Users/mac/Desktop/0_Solo/mmbwn6.jpg,,0.05,n,,,,,0,32,32,93,676.0649931,,,,,,,,,,,,,,,,,,,,,,676.0378913,676.0649931,676.0649931,683.0339878,683.0558774,683.0731215,689.971181,n,0,13.897377,None,,,,NS,1,2024-11-29_20h50.08.630,soloproject,2024.1.5,None,2024-11-29 20h50.20.598882 +0530/Users/mac/Desktop/0_Solo/rockcn4.jpg,,0.533,n,,,,,0,33,33,2,689.998446,,,,,,,,,,,,,,,,,,,,,,689.9726625,689.998446,689.998446,696.9676774,696.9907198,697.4906612,698.8759987,n,0,8.873560834,None,,,,NS,1,2024-11-29_20h50.08.630,soloproject,2024.1.5,None,2024-11-29 20h50.20.598882 +0530/Users/mac/Desktop/0_Solo/rockc5.jpg,,1.067,y,,,,,0,34,34,33,698.9702227,,,,,,,,,,,,,,,,,,,,,,698.8770132,698.9702227,698.9702227,705.8772393,705.9690355,706.9404839,707.1609853,y,0,8.184313333,None,,,,NS,1,2024-11-29_20h50.08.630,soloproject,2024.1.5,None,2024-11-29 20h50.20.598882 +0530/Users/mac/Desktop/0_Solo/rockbw5.jpg,,0.533,y,,,,,0,35,35,68,707.1941368,,,,,,,,,,,,,,,,,,,,,,707.1618194,707.1941368,707.1941368,714.1599089,714.1915095,714.6861363,716.2594618,n,0,9.060306083,None,,,,NS,1,2024-11-29_20h50.08.630,soloproject,2024.1.5,None,2024-11-29 20h50.20.598882 +0530/Users/mac/Desktop/0_Solo/flowerc3.jpg,,1.067,y,,,,,0,36,36,1,716.319513,,,,,,,,,,,,,,,,,,,,,,716.2603864,716.319513,716.319513,723.264235,723.3195302,,724.1069096,y,0,7.775883,None,,,,NS,1,2024-11-29_20h50.08.630,soloproject,2024.1.5,None,2024-11-29 20h50.20.598882 +0530/Users/mac/Desktop/0_Solo/rockbw2.jpg,,0.8,y,,,,,0,37,37,91,724.1424292,,,,,,,,,,,,,,,,,,,,,,724.1086597,724.1424292,724.1424292,731.1028606,731.1364268,731.8917179,732.5557169,y,0,8.403215792,None,,,,NS,1,2024-11-29_20h50.08.630,soloproject,2024.1.5,None,2024-11-29 20h50.20.598882 +0530/Users/mac/Desktop/0_Solo/landscapecn4.jpg,,0.533,n,,,,,0,38,38,41,732.5817381,,,,,,,,,,,,,,,,,,,,,,732.5568814,732.5817381,732.5817381,739.5527208,739.5749995,740.0748087,740.8795667,n,0,8.293093333,None,,,,NS,1,2024-11-29_20h50.08.630,soloproject,2024.1.5,None,2024-11-29 20h50.20.598882 +0530/Users/mac/Desktop/0_Solo/rockbwn5.jpg,,0.2,n,,,,,0,39,39,63,740.9024813,,,,,,,,,,,,,,,,,,,,,,740.8806538,740.9024813,740.9024813,747.87813,747.8920267,748.075676,749.181499,n,0,8.273904875,None,,,,NS,1,2024-11-29_20h50.08.630,soloproject,2024.1.5,None,2024-11-29 20h50.20.598882 +0530/Users/mac/Desktop/0_Solo/mmc5.jpg,,0.8,y,,,,,0,40,40,8,749.2245482,,,,,,,,,,,,,,,,,,,,,,749.1833618,749.2245482,749.2245482,756.1782176,756.2206128,756.9746312,758.105824,y,0,8.873233708,None,,,,NS,1,2024-11-29_20h50.08.630,soloproject,2024.1.5,None,2024-11-29 20h50.20.598882 +0530/Users/mac/Desktop/0_Solo/landscapebw6.jpg,,0.05,y,,,,,0,41,41,39,758.1306819,,,,,,,,,,,,,,,,,,,,,,758.1069763,758.1306819,758.1306819,765.1030217,765.1260043,765.1426493,766.2949195,y,0,8.160242833,None,,,,NS,1,2024-11-29_20h50.08.630,soloproject,2024.1.5,None,2024-11-29 20h50.20.598882 +0530/Users/mac/Desktop/0_Solo/mmc6.jpg,,0.533,y,,,,,0,42,42,27,766.3220927,,,,,,,,,,,,,,,,,,,,,,766.2959296,766.3220927,766.3220927,773.2932121,773.3201511,773.820865,774.3885327,y,0,8.054594375,None,,,,NS,1,2024-11-29_20h50.08.630,soloproject,2024.1.5,None,2024-11-29 20h50.20.598882 +0530/Users/mac/Desktop/0_Solo/mmbw5.jpg,,0.533,y,,,,,0,43,43,92,774.4101462,,,,,,,,,,,,,,,,,,,,,,774.3894045,774.4101462,774.4101462,781.386666,781.4046158,781.909987,783.2644619,y,0,8.8487555,None,,,,NS,1,2024-11-29_20h50.08.630,soloproject,2024.1.5,None,2024-11-29 20h50.20.598882 +0530/Users/mac/Desktop/0_Solo/landscapec5.jpg,,0.4,y,,,,,0,44,44,89,783.29332,,,,,,,,,,,,,,,,,,,,,,783.2662633,783.29332,783.29332,790.2629378,790.2881913,790.6597325,791.5072136,y,0,8.206348125,None,,,,NS,1,2024-11-29_20h50.08.630,soloproject,2024.1.5,None,2024-11-29 20h50.20.598882 +0530/Users/mac/Desktop/0_Solo/mmc4.jpg,,0.533,y,,,,,0,45,45,85,791.5311902,,,,,,,,,,,,,,,,,,,,,,791.5081738,791.5311902,791.5311902,798.504675,798.5270806,799.0271783,799.7138792,y,0,8.177153833,None,,,,NS,1,2024-11-29_20h50.08.630,soloproject,2024.1.5,None,2024-11-29 20h50.20.598882 +0530/Users/mac/Desktop/0_Solo/flowercn1.jpg,,0.8,n,,,,,0,46,46,71,799.7329091,,,,,,,,,,,,,,,,,,,,,,799.715182,799.7329091,799.7329091,806.7119823,806.7269423,807.505304,807.8624992,n,0,8.124610958,None,,,,NS,1,2024-11-29_20h50.08.630,soloproject,2024.1.5,None,2024-11-29 20h50.20.598882 +0530/Users/mac/Desktop/0_Solo/flowerc5.jpg,,0.2,y,,,,,0,47,47,83,807.9322453,,,,,,,,,,,,,,,,,,,,,,807.8633571,807.9322453,807.9322453,814.8550761,814.9276793,815.0436535,815.9080284,y,0,7.9636445,None,,,,NS,1,2024-11-29_20h50.08.630,soloproject,2024.1.5,None,2024-11-29 20h50.20.598882 +0530/Users/mac/Desktop/0_Solo/landscapecn5.jpg,,1.067,n,,,,,0,48,48,61,815.93944,,,,,,,,,,,,,,,,,,,,,,815.908926,815.93944,815.93944,822.905308,822.9391336,823.962299,826.0427012,n,0,10.09723413,None,,,,NS,1,2024-11-29_20h50.08.630,soloproject,2024.1.5,None,2024-11-29 20h50.20.598882 +0530/Users/mac/Desktop/0_Solo/landscapec6.jpg,,0.2,y,,,,,0,49,49,36,826.0722162,,,,,,,,,,,,,,,,,,,,,,826.0444267,826.0722162,826.0722162,833.0384116,833.0616832,833.228033,833.9246397,y,0,7.845864625,None,,,,NS,1,2024-11-29_20h50.08.630,soloproject,2024.1.5,None,2024-11-29 20h50.20.598882 +0530/Users/mac/Desktop/0_Solo/flowercn6.jpg,,0.8,n,,,,,0,50,50,49,833.9496812,,,,,,,,,,,,,,,,,,,,,,833.9254804,833.9496812,833.9496812,840.9219173,840.944732,841.7117535,842.2969203,y,0,8.342008,None,,,,NS,1,2024-11-29_20h50.08.630,soloproject,2024.1.5,None,2024-11-29 20h50.20.598882 +0530/Users/mac/Desktop/0_Solo/mmbw3.jpg,,0.533,y,,,,,0,51,51,46,842.3209282,,,,,,,,,,,,,,,,,,,,,,842.2978255,842.3209282,842.3209282,849.2974842,849.3121613,849.8234296,850.9096927,n,0,8.577968792,None,,,,NS,1,2024-11-29_20h50.08.630,soloproject,2024.1.5,None,2024-11-29 20h50.20.598882 +0530/Users/mac/Desktop/0_Solo/mmbw2.jpg,,0.2,y,,,,,0,52,52,7,850.9394185,,,,,,,,,,,,,,,,,,,,,,850.9114497,850.9394185,850.9394185,857.9058573,857.9280193,858.0959484,859.1424531,n,0,8.193546834,None,,,,NS,1,2024-11-29_20h50.08.630,soloproject,2024.1.5,None,2024-11-29 20h50.20.598882 +0530/Users/mac/Desktop/0_Solo/mmbw1.jpg,,0.533,y,,,,,0,53,53,6,859.1677194,,,,,,,,,,,,,,,,,,,,,,859.1434343,859.1677194,859.1677194,866.1405078,866.1616875,866.6622173,867.6160413,y,0,8.44249775,None,,,,NS,1,2024-11-29_20h50.08.630,soloproject,2024.1.5,None,2024-11-29 20h50.20.598882 +0530/Users/mac/Desktop/0_Solo/flowercn2.jpg,,1.067,n,,,,,0,54,54,15,867.6673608,,,,,,,,,,,,,,,,,,,,,,867.6171517,867.6673608,867.6673608,874.61573,874.6620589,875.6903772,876.2482573,n,0,8.575383708,None,,,,NS,1,2024-11-29_20h50.08.630,soloproject,2024.1.5,None,2024-11-29 20h50.20.598882 +0530/Users/mac/Desktop/0_Solo/landscapec3.jpg,,0.8,y,,,,,0,55,55,24,876.3007802,,,,,,,,,,,,,,,,,,,,,,876.2491657,876.3007802,876.3007802,883.2508381,883.2964631,884.0455809,885.3327563,y,0,9.026452167,None,,,,NS,1,2024-11-29_20h50.08.630,soloproject,2024.1.5,None,2024-11-29 20h50.20.598882 +0530/Users/mac/Desktop/0_Solo/landscapebwn5.jpg,,1.067,n,,,,,0,56,56,9,885.3752606,,,,,,,,,,,,,,,,,,,,,,885.3335897,885.3752606,885.3752606,892.332482,892.3637111,893.3957745,893.5439116,n,0,8.1621675,None,,,,NS,1,2024-11-29_20h50.08.630,soloproject,2024.1.5,None,2024-11-29 20h50.20.598882 +0530/Users/mac/Desktop/0_Solo/landscapec4.jpg,,0.533,y,,,,,0,57,57,79,893.568673,,,,,,,,,,,,,,,,,,,,,,893.5449899,893.568673,893.568673,900.540926,900.5637217,901.0635602,902.5502964,y,0,8.978128083,None,,,,NS,1,2024-11-29_20h50.08.630,soloproject,2024.1.5,None,2024-11-29 20h50.20.598882 +0530/Users/mac/Desktop/0_Solo/landscapebw3.jpg,,0.8,y,,,,,0,58,58,82,902.5739638,,,,,,,,,,,,,,,,,,,,,,902.5511653,902.5739638,902.5739638,909.5494256,909.563336,910.346933,911.6105282,y,0,9.031054917,None,,,,NS,1,2024-11-29_20h50.08.630,soloproject,2024.1.5,None,2024-11-29 20h50.20.598882 +0530/Users/mac/Desktop/0_Solo/landscapec1.jpg,,0.8,y,,,,,0,59,59,86,911.7720103,,,,,,,,,,,,,,,,,,,,,,911.6116021,911.7720103,911.7720103,918.607597,918.7646035,919.3973542,920.4276311,y,0,8.651184917,None,,,,NS,1,2024-11-29_20h50.08.630,soloproject,2024.1.5,None,2024-11-29 20h50.20.598882 +0530/Users/mac/Desktop/0_Solo/flowercn4.jpg,,0.8,n,,,,,0,60,60,64,920.4648542,,,,,,,,,,,,,,,,,,,,,,920.428556,920.4648542,920.4648542,927.4247966,927.4590811,928.2145237,928.6998184,n,0,8.231624459,None,,,,NS,1,2024-11-29_20h50.08.630,soloproject,2024.1.5,None,2024-11-29 20h50.20.598882 +0530/Users/mac/Desktop/0_Solo/landscapebwn3.jpg,,0.533,n,,,,,0,61,61,48,928.7313938,,,,,,,,,,,,,,,,,,,,,,928.7007536,928.7313938,928.7313938,935.7007101,935.7259434,936.2312785,939.2346383,y,0,10.49583604,None,,,,NS,1,2024-11-29_20h50.08.630,soloproject,2024.1.5,None,2024-11-29 20h50.20.598882 +0530/Users/mac/Desktop/0_Solo/flowerbwn6.jpg,,0.05,n,,,,,0,62,62,57,939.2630513,,,,,,,,,,,,,,,,,,,,,,939.235863,939.2630513,939.2630513,946.2341132,946.2588983,946.2809217,947.2346748,y,0,7.966302709,None,,,,NS,1,2024-11-29_20h50.08.630,soloproject,2024.1.5,None,2024-11-29 20h50.20.598882 +0530/Users/mac/Desktop/0_Solo/rockbwn3.jpg,,0.4,n,,,,,0,63,63,77,947.2597223,,,,,,,,,,,,,,,,,,,,,,947.2356472,947.2597223,947.2597223,954.2341675,954.2598035,954.6317702,955.5687192,y,0,8.302601667,None,,,,NS,1,2024-11-29_20h50.08.630,soloproject,2024.1.5,None,2024-11-29 20h50.20.598882 +0530/Users/mac/Desktop/0_Solo/mmbwn2.jpg,,0.05,n,,,,,0,64,64,18,955.5866634,,,,,,,,,,,,,,,,,,,,,,955.5698012,955.5866634,955.5866634,962.5675792,962.5808975,962.6148311,963.4010298,n,0,7.80965,None,,,,NS,1,2024-11-29_20h50.08.630,soloproject,2024.1.5,None,2024-11-29 20h50.20.598882 +0530/Users/mac/Desktop/0_Solo/rockc6.jpg,,0.4,y,,,,,0,65,65,67,963.4309509,,,,,,,,,,,,,,,,,,,,,,963.4018619,963.4309509,963.4309509,970.400912,970.4268379,970.7993694,971.6524714,y,0,8.214745834,None,,,,NS,1,2024-11-29_20h50.08.630,soloproject,2024.1.5,None,2024-11-29 20h50.20.598882 +0530/Users/mac/Desktop/0_Solo/mmcn5.jpg,,0.4,n,,,,,0,66,66,52,971.6796737,,,,,,,,,,,,,,,,,,,,,,971.6535421,971.6796737,971.6796737,978.6516893,978.6770284,979.0493003,979.8371583,y,0,8.153492333,None,,,,NS,1,2024-11-29_20h50.08.630,soloproject,2024.1.5,None,2024-11-29 20h50.20.598882 +0530/Users/mac/Desktop/0_Solo/landscapecn1.jpg,,0.8,n,,,,,0,67,67,30,979.9156308,,,,,,,,,,,,,,,,,,,,,,979.8384604,979.9156308,979.9156308,986.8378991,986.9101232,987.632655,988.302578,n,0,8.381913834,None,,,,NS,1,2024-11-29_20h50.08.630,soloproject,2024.1.5,None,2024-11-29 20h50.20.598882 +0530/Users/mac/Desktop/0_Solo/flowerbwn5.jpg,,0.4,n,,,,,0,68,68,44,988.3246029,,,,,,,,,,,,,,,,,,,,,,988.3034382,988.3246029,988.3246029,995.3018307,995.3162515,995.6995965,998.5035703,n,0,10.17626842,None,,,,NS,1,2024-11-29_20h50.08.630,soloproject,2024.1.5,None,2024-11-29 20h50.20.598882 +0530/Users/mac/Desktop/0_Solo/mmcn3.jpg,,0.05,n,,,,,0,69,69,78,998.5331807,,,,,,,,,,,,,,,,,,,,,,998.504459,998.5331807,998.5331807,1005.502579,1005.527943,1005.549601,1014.238118,y,0,15.69928975,None,,,,NS,1,2024-11-29_20h50.08.630,soloproject,2024.1.5,None,2024-11-29 20h50.20.598882 +0530/Users/mac/Desktop/0_Solo/flowerbw5.jpg,,0.4,y,,,,,0,70,70,12,1014.263698,,,,,,,,,,,,,,,,,,,,,,1014.239968,1014.263698,1014.263698,1021.240145,1021.261476,1021.645505,1022.297815,y,0,8.023298834,None,,,,NS,1,2024-11-29_20h50.08.630,soloproject,2024.1.5,None,2024-11-29 20h50.20.598882 +0530/Users/mac/Desktop/0_Solo/mmcn6.jpg,,0.05,n,,,,,0,71,71,88,1022.364456,,,,,,,,,,,,,,,,,,,,,,1022.299444,1022.364456,1022.364456,1029.294559,1029.362261,1029.334917,1030.181157,n,0,7.804912625,None,,,,NS,1,2024-11-29_20h50.08.630,soloproject,2024.1.5,None,2024-11-29 20h50.20.598882 +0530/Users/mac/Desktop/0_Solo/rockc3.jpg,,0.8,y,,,,,0,72,72,5,1030.266281,,,,,,,,,,,,,,,,,,,,,,1030.18427,1030.266281,1030.266281,1037.177923,1037.261609,1037.967996,1038.047757,y,0,7.772278667,None,,,,NS,1,2024-11-29_20h50.08.630,soloproject,2024.1.5,None,2024-11-29 20h50.20.598882 +0530/Users/mac/Desktop/0_Solo/mmbw4.jpg,,0.2,y,,,,,0,73,73,32,1038.076117,,,,,,,,,,,,,,,,,,,,,,1038.048722,1038.076117,1038.076117,1045.045829,1045.067644,1045.23453,1046.014966,y,0,7.928090041,None,,,,NS,1,2024-11-29_20h50.08.630,soloproject,2024.1.5,None,2024-11-29 20h50.20.598882 +0530/Users/mac/Desktop/0_Solo/mmc1.jpg,,1.067,y,,,,,0,74,74,81,1046.178144,,,,,,,,,,,,,,,,,,,,,,1046.015853,1046.178144,1046.178144,1053.016571,1053.16839,,1053.771851,y,0,7.590061292,None,,,,NS,1,2024-11-29_20h50.08.630,soloproject,2024.1.5,None,2024-11-29 20h50.20.598882 +0530/Users/mac/Desktop/0_Solo/flowerbwn2.jpg,,0.05,n,,,,,0,75,75,50,1053.796357,,,,,,,,,,,,,,,,,,,,,,1053.772657,1053.796357,1053.796357,1060.771197,1060.795247,1060.817918,1064.090631,n,0,10.2900675,None,,,,NS,1,2024-11-29_20h50.08.630,soloproject,2024.1.5,None,2024-11-29 20h50.20.598882 +0530/Users/mac/Desktop/0_Solo/flowerbwn3.jpg,,0.2,n,,,,,0,76,76,4,1064.167703,,,,,,,,,,,,,,,,,,,,,,1064.092268,1064.167703,1064.167703,1071.089466,1071.16273,1071.285581,1072.115318,y,0,7.942591667,None,,,,NS,1,2024-11-29_20h50.08.630,soloproject,2024.1.5,None,2024-11-29 20h50.20.598882 +0530/Users/mac/Desktop/0_Solo/rockbwn1.jpg,,0.533,n,,,,,0,77,77,35,1072.142424,,,,,,,,,,,,,,,,,,,,,,1072.116544,1072.142424,1072.142424,1079.112168,1079.134626,1079.635796,1080.815789,y,0,8.66654375,None,,,,NS,1,2024-11-29_20h50.08.630,soloproject,2024.1.5,None,2024-11-29 20h50.20.598882 +0530/Users/mac/Desktop/0_Solo/rockcn1.jpg,,0.533,n,,,,,0,78,78,22,1080.844698,,,,,,,,,,,,,,,,,,,,,,1080.816771,1080.844698,1080.844698,1087.812624,1087.836143,1088.335677,1089.18285,n,0,8.328047,None,,,,NS,1,2024-11-29_20h50.08.630,soloproject,2024.1.5,None,2024-11-29 20h50.20.598882 +0530/Users/mac/Desktop/0_Solo/mmbwn3.jpg,,0.2,n,,,,,0,79,79,66,1089.207799,,,,,,,,,,,,,,,,,,,,,,1089.183722,1089.207799,1089.207799,1096.179593,1096.202073,1096.369374,1097.039159,y,0,7.82723,None,,,,NS,1,2024-11-29_20h50.08.630,soloproject,2024.1.5,None,2024-11-29 20h50.20.598882 +0530/Users/mac/Desktop/0_Solo/rockbw3.jpg,,0.533,y,,,,,0,80,80,60,1097.094049,,,,,,,,,,,,,,,,,,,,,,1097.039964,1097.094049,1097.094049,1104.038823,1104.085785,1104.569905,1106.206027,n,0,9.107677875,None,,,,NS,1,2024-11-29_20h50.08.630,soloproject,2024.1.5,None,2024-11-29 20h50.20.598882 +0530/Users/mac/Desktop/0_Solo/flowerbwn1.jpg,,0.533,n,,,,,0,81,81,54,1106.231975,,,,,,,,,,,,,,,,,,,,,,1106.206979,1106.231975,1106.231975,1113.205311,1113.231035,1113.736508,1113.999818,y,0,7.757623792,None,,,,NS,1,2024-11-29_20h50.08.630,soloproject,2024.1.5,None,2024-11-29 20h50.20.598882 +0530/Users/mac/Desktop/0_Solo/landscapebwn6.jpg,,0.4,n,,,,,0,82,82,95,1114.047247,,,,,,,,,,,,,,,,,,,,,,1114.000663,1114.047247,1114.047247,1120.996922,1121.036664,1121.386581,1122.233941,y,0,8.174472375,None,,,,NS,1,2024-11-29_20h50.08.630,soloproject,2024.1.5,None,2024-11-29 20h50.20.598882 +0530/Users/mac/Desktop/0_Solo/landscapebw1.jpg,,0.4,y,,,,,0,83,83,31,1122.258685,,,,,,,,,,,,,,,,,,,,,,1122.235088,1122.258685,1122.258685,1129.230543,1129.253465,1129.618947,1130.434003,y,0,8.165929292,None,,,,NS,1,2024-11-29_20h50.08.630,soloproject,2024.1.5,None,2024-11-29 20h50.20.598882 +0530/Users/mac/Desktop/0_Solo/landscapecn3.jpg,,0.05,n,,,,,0,84,84,62,1130.46206,,,,,,,,,,,,,,,,,,,,,,1130.435148,1130.46206,1130.46206,1137.430658,1137.453917,1137.469944,1138.518244,n,0,8.047162625,None,,,,NS,1,2024-11-29_20h50.08.630,soloproject,2024.1.5,None,2024-11-29 20h50.20.598882 +0530/Users/mac/Desktop/0_Solo/rockbw6.jpg,,0.4,y,,,,,0,85,85,80,1138.542064,,,,,,,,,,,,,,,,,,,,,,1138.519338,1138.542064,1138.542064,1145.514437,1145.536671,1145.903022,1146.809036,y,0,8.261034,None,,,,NS,1,2024-11-29_20h50.08.630,soloproject,2024.1.5,None,2024-11-29 20h50.20.598882 +0530/Users/mac/Desktop/0_Solo/rockbw4.jpg,,1.067,y,,,,,0,86,86,51,1146.857401,,,,,,,,,,,,,,,,,,,,,,1146.810586,1146.857401,1146.857401,1153.806427,1153.853385,1154.87169,1155.356661,y,0,8.494779333,None,,,,NS,1,2024-11-29_20h50.08.630,soloproject,2024.1.5,None,2024-11-29 20h50.20.598882 +0530/Users/mac/Desktop/0_Solo/landscapebw4.jpg,,0.4,y,,,,,0,87,87,3,1155.3848,,,,,,,,,,,,,,,,,,,,,,1155.357588,1155.3848,1155.3848,1162.357288,1162.381601,1162.755708,1163.208419,y,0,7.817911459,None,,,,NS,1,2024-11-29_20h50.08.630,soloproject,2024.1.5,None,2024-11-29 20h50.20.598882 +0530/Users/mac/Desktop/0_Solo/rockc4.jpg,,0.4,y,,,,,0,88,88,65,1163.235588,,,,,,,,,,,,,,,,,,,,,,1163.210048,1163.235588,1163.235588,1170.207151,1170.232724,1170.605057,1171.525383,n,0,8.285657209,None,,,,NS,1,2024-11-29_20h50.08.630,soloproject,2024.1.5,None,2024-11-29 20h50.20.598882 +0530/Users/mac/Desktop/0_Solo/flowerc1.jpg,,0.8,y,,,,,0,89,89,58,1171.604009,,,,,,,,,,,,,,,,,,,,,,1171.5266,1171.604009,1171.604009,1178.528121,1178.599321,1179.321977,1179.776419,y,0,8.167601667,None,,,,NS,1,2024-11-29_20h50.08.630,soloproject,2024.1.5,None,2024-11-29 20h50.20.598882 +0530/Users/mac/Desktop/0_Solo/mmbwn1.jpg,,0.2,n,,,,,0,90,90,14,1179.805441,,,,,,,,,,,,,,,,,,,,,,1179.777951,1179.805441,1179.805441,1186.773713,1186.799518,1186.971367,1187.785415,n,0,7.973838042,None,,,,NS,1,2024-11-29_20h50.08.630,soloproject,2024.1.5,None,2024-11-29 20h50.20.598882 +0530/Users/mac/Desktop/0_Solo/rockbw1.jpg,,0.05,y,,,,,0,91,91,42,1187.833924,,,,,,,,,,,,,,,,,,,,,,1187.786477,1187.833924,1187.833924,1194.781865,1194.833604,1194.821691,1195.569188,y,0,7.724408417,None,,,,NS,1,2024-11-29_20h50.08.630,soloproject,2024.1.5,None,2024-11-29 20h50.20.598882 +0530/Users/mac/Desktop/0_Solo/flowercn3.jpg,,0.05,n,,,,,0,92,92,73,1195.660339,,,,,,,,,,,,,,,,,,,,,,1195.570313,1195.660339,1195.660339,1202.565812,1202.655024,1202.605683,1204.919001,n,0,9.247876792,None,,,,NS,1,2024-11-29_20h50.08.630,soloproject,2024.1.5,None,2024-11-29 20h50.20.598882 +0530/Users/mac/Desktop/0_Solo/flowerbw2.jpg,,0.05,y,,,,,0,93,93,34,1204.960658,,,,,,,,,,,,,,,,,,,,,,1204.919978,1204.960658,1204.960658,1211.916187,1211.955183,1211.955183,1212.853039,y,0,7.882548667,None,,,,NS,1,2024-11-29_20h50.08.630,soloproject,2024.1.5,None,2024-11-29 20h50.20.598882 +0530/Users/mac/Desktop/0_Solo/flowerbw3.jpg,,0.05,y,,,,,0,94,94,70,1212.92199,,,,,,,,,,,,,,,,,,,,,,1212.854079,1212.92199,1212.92199,1219.849892,1219.91752,1219.889108,1223.186278,n,0,10.25983638,None,,,,NS,1,2024-11-29_20h50.08.630,soloproject,2024.1.5,None,2024-11-29 20h50.20.598882 +0530/Users/mac/Desktop/0_Solo/mmcn1.jpg,,0.05,n,,,,,0,95,95,13,1223.215143,,,,,,,,,,,,,,,,,,,,,,1223.187469,1223.215143,1223.215143,1230.1834,1230.206834,1230.222812,1230.893701,y,0,7.675747208,None,,,,NS,1,2024-11-29_20h50.08.630,soloproject,2024.1.5,None,2024-11-29 20h50.20.598882 +0530,,,,,,,,,,,,,,,,,,,,,,,,,,,,,,,,,,,,,,,,,,,,,1230.894552,1230.913826,1231.401271,NS,1,2024-11-29_20h50.08.630,soloproject,2024.1.5,None,2024-11-29 20h50.20.598882 +0530