image,type,duration,corr_ans,trials.thisRepN,trials.thisTrialN,trials.thisN,trials.thisIndex,trials_2.thisRepN,trials_2.thisTrialN,trials_2.thisN,trials_2.thisIndex,thisRow.t,notes,instructions.started,text.started,key_resp_2.started,instructions.stopped,key_resp_2.keys,key_resp_2.rt,key_resp_2.duration,original.started,fixation1.started,image1.started,fixation1.stopped,image1.stopped,original.stopped,instructions2.started,text_2.started,keyresp.started,instructions2.stopped,keyresp.keys,keyresp.rt,keyresp.duration,mixed.started,fixation2.started,key_resp.started,image_2.started,fixation2.stopped,image_2.stopped,mixed.stopped,key_resp.keys,key_resp.corr,key_resp.rt,key_resp.duration,thanks.started,text_3.started,thanks.stopped,participant,session,date,expName,psychopyVersion,frameRate,expStart,
,,,,,,,,,,,,,,0.062323749996721745,0.13447325001470745,0.13447325001470745,6.576088833040558,space,6.437021124991588,None,,,,,,,,,,,,,,,,,,,,,,,,,,,,PB,001,2024-11-29_21h38.36.646,soloproject,2024.1.5,None,2024-11-29 21h38.54.925233 +0530,
/Users/mac/Desktop/0_Solo/rockc1.jpg,colour,0.8,,0,0,0,16,,,,,6.646979000070132,,,,,,,,,6.606366625055671,6.646979000070132,13.57648395805154,13.642387625062838,14.381330500007607,14.360130667104386,,,,,,,,,,,,,,,,,,,,,,PB,001,2024-11-29_21h38.36.646,soloproject,2024.1.5,None,2024-11-29 21h38.54.925233 +0530,
/Users/mac/Desktop/0_Solo/landscapec6.jpg,colour,1.067,,0,1,1,18,,,,,14.381330500007607,,,,,,,,,14.360650832997635,14.381330500007607,21.353647083044052,21.37627325009089,22.458645583014004,22.404877708060667,,,,,,,,,,,,,,,,,,,,,,PB,001,2024-11-29_21h38.36.646,soloproject,2024.1.5,None,2024-11-29 21h38.54.925233 +0530,
/Users/mac/Desktop/0_Solo/rockbw3.jpg,bnw,1.067,,0,2,2,44,,,,,22.458645583014004,,,,,,,,,22.40529929206241,22.458645583014004,29.398661167011596,29.454468958079815,30.6198947080411,30.455310917110182,,,,,,,,,,,,,,,,,,,,,,PB,001,2024-11-29_21h38.36.646,soloproject,2024.1.5,None,2024-11-29 21h38.54.925233 +0530,
/Users/mac/Desktop/0_Solo/mmc1.jpg,colour,1.067,,0,3,3,13,,,,,30.6198947080411,,,,,,,,,30.456592583097517,30.6198947080411,37.44870216702111,37.6099075000966,38.5386970420368,38.505573333008215,,,,,,,,,,,,,,,,,,,,,,PB,001,2024-11-29_21h38.36.646,soloproject,2024.1.5,None,2024-11-29 21h38.54.925233 +0530,
/Users/mac/Desktop/0_Solo/landscapebw6.jpg,bnw,0.533,,0,4,4,38,,,,,38.5386970420368,,,,,,,,,38.50617129204329,38.5386970420368,45.496322208084166,45.5269899580162,46.093451583059505,46.02287662506569,,,,,,,,,,,,,,,,,,,,,,PB,001,2024-11-29_21h38.36.646,soloproject,2024.1.5,None,2024-11-29 21h38.54.925233 +0530,
/Users/mac/Desktop/0_Solo/rockc3.jpg,colour,1.067,,0,5,5,36,,,,,46.093451583059505,,,,,,,,,46.02371104201302,46.093451583059505,53.02129304211121,53.08861750003416,54.09495737508405,54.07234333304223,,,,,,,,,,,,,,,,,,,,,,PB,001,2024-11-29_21h38.36.646,soloproject,2024.1.5,None,2024-11-29 21h38.54.925233 +0530,
/Users/mac/Desktop/0_Solo/rockbw6.jpg,bnw,0.4,,0,6,6,8,,,,,54.09495737508405,,,,,,,,,54.0726597920293,54.09495737508405,61.062996292021126,61.088457417092286,61.46643162507098,61.446229292079806,,,,,,,,,,,,,,,,,,,,,,PB,001,2024-11-29_21h38.36.646,soloproject,2024.1.5,None,2024-11-29 21h38.54.925233 +0530,
/Users/mac/Desktop/0_Solo/mmc4.jpg,colour,0.05,,0,7,7,19,,,,,61.46643162507098,,,,,,,,,61.44675320805982,61.46643162507098,68.43826245807577,68.45969166699797,68.63640108308755,68.47273483301979,,,,,,,,,,,,,,,,,,,,,,PB,001,2024-11-29_21h38.36.646,soloproject,2024.1.5,None,2024-11-29 21h38.54.925233 +0530,
/Users/mac/Desktop/0_Solo/landscapec1.jpg,colour,1.067,,0,8,8,33,,,,,68.63640108308755,,,,,,,,,68.47324129205663,68.63640108308755,75.47408241708763,75.62785770802293,76.59944795805495,76.52973704203032,,,,,,,,,,,,,,,,,,,,,,PB,001,2024-11-29_21h38.36.646,soloproject,2024.1.5,None,2024-11-29 21h38.54.925233 +0530,
/Users/mac/Desktop/0_Solo/flowerbw3.jpg,bnw,0.4,,0,9,9,43,,,,,76.59944795805495,,,,,,,,,76.53106712503359,76.59944795805495,83.52275512507185,83.59422050009016,83.93489858310204,83.90673212509137,,,,,,,,,,,,,,,,,,,,,,PB,001,2024-11-29_21h38.36.646,soloproject,2024.1.5,None,2024-11-29 21h38.54.925233 +0530,
/Users/mac/Desktop/0_Solo/landscapebw4.jpg,bnw,0.2,,0,10,10,14,,,,,83.93489858310204,,,,,,,,,83.90724195807707,83.93489858310204,90.89733941701706,90.92812804202549,91.15206500003114,91.08989595808089,,,,,,,,,,,,,,,,,,,,,,PB,001,2024-11-29_21h38.36.646,soloproject,2024.1.5,None,2024-11-29 21h38.54.925233 +0530,
/Users/mac/Desktop/0_Solo/flowerbw6.jpg,bnw,0.2,,0,11,11,39,,,,,91.15206500003114,,,,,,,,,91.0904272920452,91.15206500003114,98.0816950420849,98.14487712504342,98.34184862510301,98.27354212501086,,,,,,,,,,,,,,,,,,,,,,PB,001,2024-11-29_21h38.36.646,soloproject,2024.1.5,None,2024-11-29 21h38.54.925233 +0530,
/Users/mac/Desktop/0_Solo/flowerc5.jpg,colour,0.2,,0,12,12,11,,,,,98.34184862510301,,,,,,,,,98.27424904203508,98.34184862510301,105.2653221670771,105.3400532080559,105.48060941707809,105.4573587080231,,,,,,,,,,,,,,,,,,,,,,PB,001,2024-11-29_21h38.36.646,soloproject,2024.1.5,None,2024-11-29 21h38.54.925233 +0530,
/Users/mac/Desktop/0_Solo/mmbw2.jpg,bnw,0.05,,0,13,13,7,,,,,105.48060941707809,,,,,,,,,105.45786425005645,105.48060941707809,112.44850958301686,112.4732284580823,112.4940341670299,112.48261304199696,,,,,,,,,,,,,,,,,,,,,,PB,001,2024-11-29_21h38.36.646,soloproject,2024.1.5,None,2024-11-29 21h38.54.925233 +0530,
/Users/mac/Desktop/0_Solo/landscapec5.jpg,colour,0.4,,0,14,14,27,,,,,112.4940341670299,,,,,,,,,112.48280966700986,112.4940341670299,119.48115279199556,119.4901668750681,119.91158250009175,119.87433791707736,,,,,,,,,,,,,,,,,,,,,,PB,001,2024-11-29_21h38.36.646,soloproject,2024.1.5,None,2024-11-29 21h38.54.925233 +0530,
/Users/mac/Desktop/0_Solo/flowerbw2.jpg,bnw,0.533,,0,15,15,15,,,,,119.91158250009175,,,,,,,,,119.87485420808662,119.91158250009175,126.8664099581074,126.90719979209825,127.41411308303941,127.3916784171015,,,,,,,,,,,,,,,,,,,,,,PB,001,2024-11-29_21h38.36.646,soloproject,2024.1.5,None,2024-11-29 21h38.54.925233 +0530,
/Users/mac/Desktop/0_Solo/landscapebw1.jpg,bnw,0.8,,0,16,16,21,,,,,127.41411308303941,,,,,,,,,127.39240591705311,127.41411308303941,134.3818763330346,134.40750745800324,135.18844891700428,135.16506500006653,,,,,,,,,,,,,,,,,,,,,,PB,001,2024-11-29_21h38.36.646,soloproject,2024.1.5,None,2024-11-29 21h38.54.925233 +0530,
/Users/mac/Desktop/0_Solo/rockc4.jpg,colour,0.05,,0,17,17,2,,,,,135.18844891700428,,,,,,,,,135.16557387507055,135.18844891700428,142.16552762500942,142.17915145808365,142.22883808310144,142.20830491709057,,,,,,,,,,,,,,,,,,,,,,PB,001,2024-11-29_21h38.36.646,soloproject,2024.1.5,None,2024-11-29 21h38.54.925233 +0530,
/Users/mac/Desktop/0_Solo/rockbw2.jpg,bnw,0.8,,0,18,18,37,,,,,142.22883808310144,,,,,,,,,142.20878904208075,142.22883808310144,149.19891195802484,149.22470866702497,150.2585575421108,149.99206220800988,,,,,,,,,,,,,,,,,,,,,,PB,001,2024-11-29_21h38.36.646,soloproject,2024.1.5,None,2024-11-29 21h38.54.925233 +0530,
/Users/mac/Desktop/0_Solo/rockc2.jpg,colour,0.533,,0,19,19,31,,,,,150.2585575421108,,,,,,,,,149.99258066702168,150.2585575421108,156.98956537502818,157.25814312510192,157.58893095806707,157.50872575002722,,,,,,,,,,,,,,,,,,,,,,PB,001,2024-11-29_21h38.36.646,soloproject,2024.1.5,None,2024-11-29 21h38.54.925233 +0530,
/Users/mac/Desktop/0_Solo/flowerc6.jpg,colour,0.8,,0,20,20,0,,,,,157.58893095806707,,,,,,,,,157.51015558303334,157.58893095806707,164.50081320805475,164.58031037508044,165.32063304202165,165.29230020800605,,,,,,,,,,,,,,,,,,,,,,PB,001,2024-11-29_21h38.36.646,soloproject,2024.1.5,None,2024-11-29 21h38.54.925233 +0530,
/Users/mac/Desktop/0_Solo/mmbw5.jpg,bnw,0.2,,0,21,21,45,,,,,165.32063304202165,,,,,,,,,165.29289150005206,165.32063304202165,172.28336920810398,172.31423250003718,172.49603412509896,172.47584900003858,,,,,,,,,,,,,,,,,,,,,,PB,001,2024-11-29_21h38.36.646,soloproject,2024.1.5,None,2024-11-29 21h38.54.925233 +0530,
/Users/mac/Desktop/0_Solo/rockbw5.jpg,bnw,0.05,,0,22,22,41,,,,,172.49603412509896,,,,,,,,,172.476356166997,172.49603412509896,179.46623254206497,179.49209895799868,179.52876400004607,179.50873666710686,,,,,,,,,,,,,,,,,,,,,,PB,001,2024-11-29_21h38.36.646,soloproject,2024.1.5,None,2024-11-29 21h38.54.925233 +0530,
/Users/mac/Desktop/0_Solo/mmc3.jpg,colour,1.067,,0,23,23,3,,,,,179.52876400004607,,,,,,,,,179.5091225830838,179.52876400004607,186.49781566706952,186.52555229200516,187.5664727500407,187.55076970800292,,,,,,,,,,,,,,,,,,,,,,PB,001,2024-11-29_21h38.36.646,soloproject,2024.1.5,None,2024-11-29 21h38.54.925233 +0530,
/Users/mac/Desktop/0_Solo/mmc2.jpg,colour,0.8,,0,24,24,46,,,,,187.5664727500407,,,,,,,,,187.55135883309413,187.5664727500407,194.54981208301615,194.55885229201522,195.3835097081028,195.3429223750718,,,,,,,,,,,,,,,,,,,,,,PB,001,2024-11-29_21h38.36.646,soloproject,2024.1.5,None,2024-11-29 21h38.54.925233 +0530,
/Users/mac/Desktop/0_Solo/flowerc2.jpg,colour,0.4,,0,25,25,4,,,,,195.3835097081028,,,,,,,,,195.3432247081073,195.3835097081028,202.33388537506107,202.3817642920185,202.79966670810245,202.72690608305857,,,,,,,,,,,,,,,,,,,,,,PB,001,2024-11-29_21h38.36.646,soloproject,2024.1.5,None,2024-11-29 21h38.54.925233 +0530,
/Users/mac/Desktop/0_Solo/flowerc1.jpg,colour,0.8,,0,26,26,32,,,,,202.79966670810245,,,,,,,,,202.7274249580223,202.79966670810245,209.71925945801195,209.79300750000402,210.5325702080736,210.51026750006713,,,,,,,,,,,,,,,,,,,,,,PB,001,2024-11-29_21h38.36.646,soloproject,2024.1.5,None,2024-11-29 21h38.54.925233 +0530,
/Users/mac/Desktop/0_Solo/flowerbw5.jpg,bnw,0.533,,0,27,27,22,,,,,210.5325702080736,,,,,,,,,210.5110468750354,210.5325702080736,217.5010769580258,217.52652291709092,218.08009541709907,218.0277456670301,,,,,,,,,,,,,,,,,,,,,,PB,001,2024-11-29_21h38.36.646,soloproject,2024.1.5,None,2024-11-29 21h38.54.925233 +0530,
/Users/mac/Desktop/0_Solo/landscapec3.jpg,colour,0.533,,0,28,28,6,,,,,218.08009541709907,,,,,,,,,218.02832329203375,218.08009541709907,225.0294191670837,225.07676004210953,225.57776945806108,225.54951970803086,,,,,,,,,,,,,,,,,,,,,,PB,001,2024-11-29_21h38.36.646,soloproject,2024.1.5,None,2024-11-29 21h38.54.925233 +0530,
/Users/mac/Desktop/0_Solo/mmbw1.jpg,bnw,0.4,,0,29,29,30,,,,,225.57776945806108,,,,,,,,,225.5506672920892,225.57776945806108,232.54302745801397,232.57697087503038,232.9717113750521,232.92768091708422,,,,,,,,,,,,,,,,,,,,,,PB,001,2024-11-29_21h38.36.646,soloproject,2024.1.5,None,2024-11-29 21h38.54.925233 +0530,
/Users/mac/Desktop/0_Solo/flowerbw1.jpg,bnw,0.2,,0,30,30,26,,,,,232.9717113750521,,,,,,,,,232.92821087501943,232.9717113750521,239.91819508303888,239.96573458309285,240.185457375017,240.11117620801087,,,,,,,,,,,,,,,,,,,,,,PB,001,2024-11-29_21h38.36.646,soloproject,2024.1.5,None,2024-11-29 21h38.54.925233 +0530,
/Users/mac/Desktop/0_Solo/landscapec2.jpg,colour,0.4,,0,31,31,40,,,,,240.185457375017,,,,,,,,,240.11169975006487,240.185457375017,247.1065128330374,247.18281066708732,247.51838570809923,247.49456375010777,,,,,,,,,,,,,,,,,,,,,,PB,001,2024-11-29_21h38.36.646,soloproject,2024.1.5,None,2024-11-29 21h38.54.925233 +0530,
/Users/mac/Desktop/0_Solo/landscapebw2.jpg,bnw,0.8,,0,32,32,10,,,,,247.51838570809923,,,,,,,,,247.49529800005257,247.51838570809923,254.48502029210795,254.5162077920977,255.29935445811134,255.27821766701527,,,,,,,,,,,,,,,,,,,,,,PB,001,2024-11-29_21h38.36.646,soloproject,2024.1.5,None,2024-11-29 21h38.54.925233 +0530,
/Users/mac/Desktop/0_Solo/landscapebw2.jpg,bnw,0.05,,0,33,33,47,,,,,255.29935445811134,,,,,,,,,255.27871104201768,255.29935445811134,262.2772020420525,262.2944454581011,262.33145970804617,262.3115413330961,,,,,,,,,,,,,,,,,,,,,,PB,001,2024-11-29_21h38.36.646,soloproject,2024.1.5,None,2024-11-29 21h38.54.925233 +0530,
/Users/mac/Desktop/0_Solo/landscapebw3.jpg,bnw,0.533,,0,34,34,42,,,,,262.33145970804617,,,,,,,,,262.3120243330486,262.33145970804617,269.3015865420457,269.32797033304814,269.835978792049,269.8175180000253,,,,,,,,,,,,,,,,,,,,,,PB,001,2024-11-29_21h38.36.646,soloproject,2024.1.5,None,2024-11-29 21h38.54.925233 +0530,
/Users/mac/Desktop/0_Solo/mmc6.jpg,colour,1.067,,0,35,35,9,,,,,269.835978792049,,,,,,,,,269.8183090001112,269.835978792049,276.8109317920171,276.8323981250869,277.912117333035,277.8622684170259,,,,,,,,,,,,,,,,,,,,,,PB,001,2024-11-29_21h38.36.646,soloproject,2024.1.5,None,2024-11-29 21h38.54.925233 +0530,
/Users/mac/Desktop/0_Solo/rockbw4.jpg,bnw,0.8,,0,36,36,29,,,,,277.912117333035,,,,,,,,,277.8627662080107,277.912117333035,284.8527387920767,284.9002883330686,285.66789412510116,285.64572100003716,,,,,,,,,,,,,,,,,,,,,,PB,001,2024-11-29_21h38.36.646,soloproject,2024.1.5,None,2024-11-29 21h38.54.925233 +0530,
/Users/mac/Desktop/0_Solo/mmc5.jpg,colour,0.2,,0,37,37,34,,,,,285.66789412510116,,,,,,,,,285.6462275000522,285.66789412510116,292.6362107919995,292.66203037509695,292.85455516702496,292.82922929211054,,,,,,,,,,,,,,,,,,,,,,PB,001,2024-11-29_21h38.36.646,soloproject,2024.1.5,None,2024-11-29 21h38.54.925233 +0530,
/Users/mac/Desktop/0_Solo/rockc6.jpg,colour,1.067,,0,38,38,25,,,,,292.85455516702496,,,,,,,,,292.82971691701096,292.85455516702496,299.819714958081,299.85092583310325,300.9510289580794,300.87954137509223,,,,,,,,,,,,,,,,,,,,,,PB,001,2024-11-29_21h38.36.646,soloproject,2024.1.5,None,2024-11-29 21h38.54.925233 +0530,
/Users/mac/Desktop/0_Solo/flowerc4.jpg,colour,0.05,,0,39,39,28,,,,,300.9510289580794,,,,,,,,,300.88003533310257,300.9510289580794,307.8731989579974,307.9622385420371,307.9182852500817,307.93614166707266,,,,,,,,,,,,,,,,,,,,,,PB,001,2024-11-29_21h38.36.646,soloproject,2024.1.5,None,2024-11-29 21h38.54.925233 +0530,
/Users/mac/Desktop/0_Solo/mmbw6.jpg,bnw,0.533,,0,40,40,24,,,,,307.9622385420371,,,,,,,,,307.9372231250163,307.9622385420371,314.92819787503686,314.95227591705043,315.465294792084,315.445976832998,,,,,,,,,,,,,,,,,,,,,,PB,001,2024-11-29_21h38.36.646,soloproject,2024.1.5,None,2024-11-29 21h38.54.925233 +0530,
/Users/mac/Desktop/0_Solo/landscapec4.jpg,colour,0.4,,0,41,41,23,,,,,315.465294792084,,,,,,,,,315.44633291708305,315.465294792084,322.4361364170909,322.4626294170739,322.90416879206896,322.82041762501467,,,,,,,,,,,,,,,,,,,,,,PB,001,2024-11-29_21h38.36.646,soloproject,2024.1.5,None,2024-11-29 21h38.54.925233 +0530,
/Users/mac/Desktop/0_Solo/rockc5.jpg,colour,0.2,,0,42,42,20,,,,,322.90416879206896,,,,,,,,,322.8208448330406,322.90416879206896,329.8223211670993,329.90118570800405,330.0792161670979,330.0134417921072,,,,,,,,,,,,,,,,,,,,,,PB,001,2024-11-29_21h38.36.646,soloproject,2024.1.5,None,2024-11-29 21h38.54.925233 +0530,
/Users/mac/Desktop/0_Solo/flowerc3.jpg,colour,0.05,,0,43,43,35,,,,,330.0792161670979,,,,,,,,,330.01392137503717,330.0792161670979,337.0075063330587,337.10360158304684,337.05263945809565,337.06383370806,,,,,,,,,,,,,,,,,,,,,,PB,001,2024-11-29_21h38.36.646,soloproject,2024.1.5,None,2024-11-29 21h38.54.925233 +0530,
/Users/mac/Desktop/0_Solo/rockbw1.jpg,bnw,0.4,,0,44,44,12,,,,,337.10360158304684,,,,,,,,,337.0644038330065,337.10360158304684,344.0547310000984,344.09667662507854,344.48057695804164,344.44733512506355,,,,,,,,,,,,,,,,,,,,,,PB,001,2024-11-29_21h38.36.646,soloproject,2024.1.5,None,2024-11-29 21h38.54.925233 +0530,
/Users/mac/Desktop/0_Solo/flowerbw4.jpg,bnw,0.2,,0,45,45,5,,,,,344.48057695804164,,,,,,,,,344.44785116706043,344.48057695804164,351.4370833330322,351.4684605420334,351.65209137508646,351.6303480420029,,,,,,,,,,,,,,,,,,,,,,PB,001,2024-11-29_21h38.36.646,soloproject,2024.1.5,None,2024-11-29 21h38.54.925233 +0530,
/Users/mac/Desktop/0_Solo/mmbw4.jpg,bnw,0.05,,0,46,46,17,,,,,351.65209137508646,,,,,,,,,351.6307614170946,351.65209137508646,358.6206405831035,358.6464157080045,358.6733590000076,358.6543769580312,,,,,,,,,,,,,,,,,,,,,,PB,001,2024-11-29_21h38.36.646,soloproject,2024.1.5,None,2024-11-29 21h38.54.925233 +0530,
/Users/mac/Desktop/0_Solo/landscapebw5.jpg,bnw,0.533,,0,47,47,1,,,,,358.6733590000076,,,,,,,,,358.6546670830576,358.6733590000076,365.6463972920319,365.66921141708735,366.1765609170543,366.16476537508424,,,,,,,,,,,,,,,,,,,,,,PB,001,2024-11-29_21h38.36.646,soloproject,2024.1.5,None,2024-11-29 21h38.54.925233 +0530,
,,,,,,,,,,,,,,,,,,,,,,,,,,,366.1650475420756,366.1765609170543,366.1765609170543,369.199983208091,space,2.9941772079328075,None,,,,,,,,,,,,,,,PB,001,2024-11-29_21h38.36.646,soloproject,2024.1.5,None,2024-11-29 21h38.54.925233 +0530,
/Users/mac/Desktop/0_Solo/mmc1.jpg,,1.067,y,,,,,0,0,0,81,369.48768083308823,,,,,,,,,,,,,,,,,,,,,,369.24012308300007,369.48768083308823,369.48768083308823,376.1981347500114,376.48081587511115,377.25319487508386,378.0395908750361,y,0,8.544639790896326,None,,,,PB,001,2024-11-29_21h38.36.646,soloproject,2024.1.5,None,2024-11-29 21h38.54.925233 +0530,
/Users/mac/Desktop/0_Solo/mmcn5.jpg,,0.4,n,,,,,0,1,1,52,378.0737333330326,,,,,,,,,,,,,,,,,,,,,,378.0417561670765,378.0737333330326,378.0737333330326,385.0381326250499,385.06961804209277,385.43123033305164,386.52412958303466,n,0,8.446682750014588,None,,,,PB,001,2024-11-29_21h38.36.646,soloproject,2024.1.5,None,2024-11-29 21h38.54.925233 +0530,
/Users/mac/Desktop/0_Solo/landscapecn5.jpg,,1.067,n,,,,,0,2,2,61,386.5483753751032,,,,,,,,,,,,,,,,,,,,,,386.5250055420911,386.5483753751032,386.5483753751032,393.52216429205146,393.54809129203204,,394.5012040830916,n,0,7.941281875013374,None,,,,PB,001,2024-11-29_21h38.36.646,soloproject,2024.1.5,None,2024-11-29 21h38.54.925233 +0530,
/Users/mac/Desktop/0_Solo/landscapec2.jpg,,0.2,y,,,,,0,3,3,20,394.5801602920983,,,,,,,,,,,,,,,,,,,,,,394.50224783306476,394.5801602920983,394.5801602920983,401.4988340830896,401.5702484170906,401.6876796670258,402.7264904580079,y,0,8.140967832994647,None,,,,PB,001,2024-11-29_21h38.36.646,soloproject,2024.1.5,None,2024-11-29 21h38.54.925233 +0530,
/Users/mac/Desktop/0_Solo/landscapebwn4.jpg,,0.4,n,,,,,0,4,4,11,402.78900600003544,,,,,,,,,,,,,,,,,,,,,,402.7282878330443,402.78900600003544,402.78900600003544,409.7232871670276,409.7818951670779,410.11974200000986,412.7335807920899,n,0,9.93510324996896,None,,,,PB,001,2024-11-29_21h38.36.646,soloproject,2024.1.5,None,2024-11-29 21h38.54.925233 +0530,
/Users/mac/Desktop/0_Solo/rockcn3.jpg,,0.2,n,,,,,0,5,5,59,412.76077366701793,,,,,,,,,,,,,,,,,,,,,,412.7346658750903,412.76077366701793,412.76077366701793,419.7316738330992,419.7538569580065,419.92037154210266,421.7075400830945,y,0,8.939893250004388,None,,,,PB,001,2024-11-29_21h38.36.646,soloproject,2024.1.5,None,2024-11-29 21h38.54.925233 +0530,
/Users/mac/Desktop/0_Solo/flowerbwn1.jpg,,0.533,n,,,,,0,6,6,54,421.73708495800383,,,,,,,,,,,,,,,,,,,,,,421.7094560000114,421.73708495800383,421.73708495800383,428.7067521670833,428.73226700001396,429.2373287921073,430.0513150000479,y,0,8.301469292026013,None,,,,PB,001,2024-11-29_21h38.36.646,soloproject,2024.1.5,None,2024-11-29 21h38.54.925233 +0530,
/Users/mac/Desktop/0_Solo/landscapebw2.jpg,,0.4,y,,,,,0,7,7,19,430.08179895801004,,,,,,,,,,,,,,,,,,,,,,430.0524235831108,430.08179895801004,430.08179895801004,437.0484694580082,437.0700282920152,437.43779012502637,438.7701531670755,y,0,8.685793749988079,None,,,,PB,001,2024-11-29_21h38.36.646,soloproject,2024.1.5,None,2024-11-29 21h38.54.925233 +0530,
/Users/mac/Desktop/0_Solo/rockc6.jpg,,0.4,y,,,,,0,8,8,67,438.79809329204727,,,,,,,,,,,,,,,,,,,,,,438.7710130420746,438.79809329204727,438.79809329204727,445.76575808308553,445.78742316702846,446.1539552080212,446.85705287510063,y,0,8.054756666067988,None,,,,PB,001,2024-11-29_21h38.36.646,soloproject,2024.1.5,None,2024-11-29 21h38.54.925233 +0530,
/Users/mac/Desktop/0_Solo/landscapecn3.jpg,,0.05,n,,,,,0,9,9,62,446.8850183330942,,,,,,,,,,,,,,,,,,,,,,446.8579017081065,446.8850183330942,446.8850183330942,453.85885854205117,453.88228058302775,453.9045551670715,454.91933454200625,n,0,8.02137579198461,None,,,,PB,001,2024-11-29_21h38.36.646,soloproject,2024.1.5,None,2024-11-29 21h38.54.925233 +0530,
/Users/mac/Desktop/0_Solo/mmc2.jpg,,0.4,y,,,,,0,10,10,55,454.94682604202535,,,,,,,,,,,,,,,,,,,,,,454.9206006670138,454.94682604202535,454.94682604202535,461.916064875084,461.93787879205775,462.30525058310013,462.9255917080445,y,0,7.974656000034884,None,,,,PB,001,2024-11-29_21h38.36.646,soloproject,2024.1.5,None,2024-11-29 21h38.54.925233 +0530,
/Users/mac/Desktop/0_Solo/rockbw5.jpg,,0.533,y,,,,,0,11,11,68,462.9557002920192,,,,,,,,,,,,,,,,,,,,,,462.92673733306583,462.9557002920192,462.9557002920192,469.9225012920797,469.9492064170772,470.4503495420795,471.50878000003286,n,0,8.54830454196781,None,,,,PB,001,2024-11-29_21h38.36.646,soloproject,2024.1.5,None,2024-11-29 21h38.54.925233 +0530,
/Users/mac/Desktop/0_Solo/rockbwn2.jpg,,0.533,n,,,,,0,12,12,17,471.53690875007305,,,,,,,,,,,,,,,,,,,,,,471.50974904210307,471.53690875007305,471.53690875007305,478.5073411670746,478.53297833306715,479.03326608310454,479.4589935831027,y,0,7.918375249952078,None,,,,PB,001,2024-11-29_21h38.36.646,soloproject,2024.1.5,None,2024-11-29 21h38.54.925233 +0530,
/Users/mac/Desktop/0_Solo/rockbw6.jpg,,0.4,y,,,,,0,13,13,80,479.4866069171112,,,,,,,,,,,,,,,,,,,,,,479.46026987500954,479.4866069171112,479.4866069171112,486.4572919580387,486.4834492080845,486.8500565830618,487.6363376250956,y,0,8.141070374986157,None,,,,PB,001,2024-11-29_21h38.36.646,soloproject,2024.1.5,None,2024-11-29 21h38.54.925233 +0530,
/Users/mac/Desktop/0_Solo/mmbw6.jpg,,0.4,y,,,,,0,14,14,38,487.6635328331031,,,,,,,,,,,,,,,,,,,,,,487.63738733308855,487.6635328331031,487.6635328331031,494.63311416702345,494.6572756250389,495.02410145802423,495.9026036669966,y,0,8.225976041983813,None,,,,PB,001,2024-11-29_21h38.36.646,soloproject,2024.1.5,None,2024-11-29 21h38.54.925233 +0530,
/Users/mac/Desktop/0_Solo/flowerbw5.jpg,,0.4,y,,,,,0,15,15,12,495.932729208027,,,,,,,,,,,,,,,,,,,,,,495.9050926670898,495.932729208027,495.932729208027,502.90059387509245,502.9223151670303,503.2899661670672,504.2927363330964,y,0,8.355894292006269,None,,,,PB,001,2024-11-29_21h38.36.646,soloproject,2024.1.5,None,2024-11-29 21h38.54.925233 +0530,
/Users/mac/Desktop/0_Solo/rockc1.jpg,,0.8,y,,,,,0,16,16,47,504.31838341709226,,,,,,,,,,,,,,,,,,,,,,504.2942642919952,504.31838341709226,504.31838341709226,511.2914889170788,511.31782429199666,512.0897686250973,512.6758365000132,y,0,8.351613790960982,None,,,,PB,001,2024-11-29_21h38.36.646,soloproject,2024.1.5,None,2024-11-29 21h38.54.925233 +0530,
/Users/mac/Desktop/0_Solo/rockcn5.jpg,,0.05,n,,,,,0,17,17,0,512.6999326250516,,,,,,,,,,,,,,,,,,,,,,512.6769703750033,512.6999326250516,512.6999326250516,519.6746376251103,519.6903229170712,519.7223425830016,523.5554170830874,n,0,10.846442832960747,None,,,,PB,001,2024-11-29_21h38.36.646,soloproject,2024.1.5,None,2024-11-29 21h38.54.925233 +0530,
/Users/mac/Desktop/0_Solo/mmcn2.jpg,,0.2,n,,,,,0,18,18,29,523.5889437920414,,,,,,,,,,,,,,,,,,,,,,523.5578187920619,523.5889437920414,523.5889437920414,530.5509988750564,530.5849866670324,530.7406804580241,531.4263714170083,y,0,7.834608625038527,None,,,,PB,001,2024-11-29_21h38.36.646,soloproject,2024.1.5,None,2024-11-29 21h38.54.925233 +0530,
/Users/mac/Desktop/0_Solo/rockbw1.jpg,,0.05,y,,,,,0,19,19,42,531.4700317920651,,,,,,,,,,,,,,,,,,,,,,531.4272978330264,531.4700317920651,531.4700317920651,538.4261906670872,538.468546707998,538.468546707998,539.2059138331097,n,0,7.732536833034828,None,,,,PB,001,2024-11-29_21h38.36.646,soloproject,2024.1.5,None,2024-11-29 21h38.54.925233 +0530,
/Users/mac/Desktop/0_Solo/mmc4.jpg,,0.533,y,,,,,0,20,20,85,539.2323515421012,,,,,,,,,,,,,,,,,,,,,,539.2070375831099,539.2323515421012,539.2323515421012,546.2009078330593,546.2243382500019,546.724214832997,546.7868237500079,y,0,7.544786332990043,None,,,,PB,001,2024-11-29_21h38.36.646,soloproject,2024.1.5,None,2024-11-29 21h38.54.925233 +0530,
/Users/mac/Desktop/0_Solo/flowercn4.jpg,,0.8,n,,,,,0,21,21,64,546.8150543330703,,,,,,,,,,,,,,,,,,,,,,546.7878110830206,546.8150543330703,546.8150543330703,553.7843971670372,553.8088399170665,554.5750897499966,554.8377153750043,n,0,8.009911542059854,None,,,,PB,001,2024-11-29_21h38.36.646,soloproject,2024.1.5,None,2024-11-29 21h38.54.925233 +0530,
/Users/mac/Desktop/0_Solo/flowerc2.jpg,,1.067,y,,,,,0,22,22,76,554.8841400831006,,,,,,,,,,,,,,,,,,,,,,554.8388375000795,554.8841400831006,554.8841400831006,561.8344182920409,561.8734356670175,,562.7105632080929,y,0,7.82160408294294,None,,,,PB,001,2024-11-29_21h38.36.646,soloproject,2024.1.5,None,2024-11-29 21h38.54.925233 +0530,
/Users/mac/Desktop/0_Solo/flowerbwn6.jpg,,0.05,n,,,,,0,23,23,57,562.7344500420149,,,,,,,,,,,,,,,,,,,,,,562.7112970000599,562.7344500420149,562.7344500420149,569.7094121670816,569.7241009999998,569.7575806250097,571.0209330420475,y,0,8.278218291932717,None,,,,PB,001,2024-11-29_21h38.36.646,soloproject,2024.1.5,None,2024-11-29 21h38.54.925233 +0530,
/Users/mac/Desktop/0_Solo/rockc5.jpg,,1.067,y,,,,,0,24,24,33,571.1150340830209,,,,,,,,,,,,,,,,,,,,,,571.0217742921086,571.1150340830209,571.1150340830209,578.0180084580788,578.1081165830838,579.0747668750118,579.120859292103,y,0,7.9943782079499215,None,,,,PB,001,2024-11-29_21h38.36.646,soloproject,2024.1.5,None,2024-11-29 21h38.54.925233 +0530,
/Users/mac/Desktop/0_Solo/landscapebw5.jpg,,0.2,y,,,,,0,25,25,75,579.1394715000642,,,,,,,,,,,,,,,,,,,,,,579.1214616250945,579.1394715000642,579.1394715000642,586.119042208069,586.1360437920084,586.3085840001004,587.212113208021,n,0,8.070468415971845,None,,,,PB,001,2024-11-29_21h38.36.646,soloproject,2024.1.5,None,2024-11-29 21h38.54.925233 +0530,
/Users/mac/Desktop/0_Solo/mmcn3.jpg,,0.05,n,,,,,0,26,26,78,587.2391673329985,,,,,,,,,,,,,,,,,,,,,,587.2130248330068,587.2391673329985,587.2391673329985,594.2101684170775,594.2359867080813,594.2521171250846,594.779438000056,y,0,7.536439207964577,None,,,,PB,001,2024-11-29_21h38.36.646,soloproject,2024.1.5,None,2024-11-29 21h38.54.925233 +0530,
/Users/mac/Desktop/0_Solo/landscapec6.jpg,,0.2,y,,,,,0,27,27,36,594.8028015830787,,,,,,,,,,,,,,,,,,,,,,594.7803997080773,594.8028015830787,594.8028015830787,601.7778739170171,601.7908869580133,601.9751429581083,602.4716119579971,y,0,7.665538207977079,None,,,,PB,001,2024-11-29_21h38.36.646,soloproject,2024.1.5,None,2024-11-29 21h38.54.925233 +0530,
/Users/mac/Desktop/0_Solo/flowerbwn5.jpg,,0.4,n,,,,,0,28,28,44,602.4882999580586,,,,,,,,,,,,,,,,,,,,,,602.4724595830776,602.4882999580586,602.4882999580586,609.4696972920792,609.4867460830137,609.8592096250504,610.8062254170654,n,0,8.312996666994877,None,,,,PB,001,2024-11-29_21h38.36.646,soloproject,2024.1.5,None,2024-11-29 21h38.54.925233 +0530,
/Users/mac/Desktop/0_Solo/rockc2.jpg,,0.2,y,,,,,0,29,29,45,611.0865008750698,,,,,,,,,,,,,,,,,,,,,,610.8073311250191,611.0865008750698,611.0865008750698,617.8038019580999,618.0759528750787,618.0031303330325,618.7721487500239,y,0,7.678261874942109,None,,,,PB,001,2024-11-29_21h38.36.646,soloproject,2024.1.5,None,2024-11-29 21h38.54.925233 +0530,
/Users/mac/Desktop/0_Solo/flowerbw1.jpg,,0.533,y,,,,,0,30,30,72,618.8271562081063,,,,,,,,,,,,,,,,,,,,,,618.773020792054,618.8271562081063,618.8271562081063,625.7696357500972,625.8272271250607,626.2941417921102,626.8847059170948,y,0,8.04480574990157,None,,,,PB,001,2024-11-29_21h38.36.646,soloproject,2024.1.5,None,2024-11-29 21h38.54.925233 +0530,
/Users/mac/Desktop/0_Solo/mmcn1.jpg,,0.05,n,,,,,0,31,31,13,626.9059822499985,,,,,,,,,,,,,,,,,,,,,,626.8857371250633,626.9059822499985,626.9059822499985,633.8773172080982,633.9043610420777,633.926979458076,636.1724524580641,n,0,9.260395999997854,None,,,,PB,001,2024-11-29_21h38.36.646,soloproject,2024.1.5,None,2024-11-29 21h38.54.925233 +0530,
/Users/mac/Desktop/0_Solo/rockcn4.jpg,,0.533,n,,,,,0,32,32,2,636.1975386670092,,,,,,,,,,,,,,,,,,,,,,636.1733178750146,636.1975386670092,636.1975386670092,643.1705662080785,643.1942416670499,643.6947089580353,644.7059977920726,n,0,8.497545582940802,None,,,,PB,001,2024-11-29_21h38.36.646,soloproject,2024.1.5,None,2024-11-29 21h38.54.925233 +0530,
/Users/mac/Desktop/0_Solo/mmbwn4.jpg,,0.2,n,,,,,0,33,33,94,644.7286977500189,,,,,,,,,,,,,,,,,,,,,,644.7068518750602,644.7286977500189,644.7286977500189,651.7035694580991,651.7269531250931,651.89351420803,652.5668755830266,y,0,7.826456666924059,None,,,,PB,001,2024-11-29_21h38.36.646,soloproject,2024.1.5,None,2024-11-29 21h38.54.925233 +0530,
/Users/mac/Desktop/0_Solo/mmcn4.jpg,,1.067,n,,,,,0,34,34,28,652.5869135420071,,,,,,,,,,,,,,,,,,,,,,652.567705500056,652.5869135420071,652.5869135420071,659.5628085000208,659.5754485001089,,660.5903805420967,y,0,7.992241833009757,None,,,,PB,001,2024-11-29_21h38.36.646,soloproject,2024.1.5,None,2024-11-29 21h38.54.925233 +0530,
/Users/mac/Desktop/0_Solo/mmbwn1.jpg,,0.2,n,,,,,0,35,35,14,660.6144510000013,,,,,,,,,,,,,,,,,,,,,,660.5914182920242,660.6144510000013,660.6144510000013,667.5878385830438,667.6100457080174,667.7772437920794,668.4626861670986,n,0,7.844047333928756,None,,,,PB,001,2024-11-29_21h38.36.646,soloproject,2024.1.5,None,2024-11-29 21h38.54.925233 +0530,
/Users/mac/Desktop/0_Solo/landscapecn2.jpg,,0.4,n,,,,,0,36,36,25,668.5295480830828,,,,,,,,,,,,,,,,,,,,,,668.4637672080426,668.5295480830828,668.5295480830828,675.4637817080365,675.5273973750882,675.859637292102,676.362378083053,y,0,7.828711417037994,None,,,,PB,001,2024-11-29_21h38.36.646,soloproject,2024.1.5,None,2024-11-29 21h38.54.925233 +0530,
/Users/mac/Desktop/0_Solo/flowerc6.jpg,,0.05,y,,,,,0,37,37,26,676.436078375089,,,,,,,,,,,,,,,,,,,,,,676.3634152919985,676.436078375089,676.436078375089,683.3614894170314,683.4272460830398,683.4050814580405,690.2927751250099,n,0,13.84785154205747,None,,,,PB,001,2024-11-29_21h38.36.646,soloproject,2024.1.5,None,2024-11-29 21h38.54.925233 +0530,
/Users/mac/Desktop/0_Solo/mmcn6.jpg,,0.05,n,,,,,0,38,38,88,690.3337897920283,,,,,,,,,,,,,,,,,,,,,,690.2949436670169,690.3337897920283,690.3337897920283,697.2885521670105,697.3260826250771,697.3260826250771,698.0413149170345,y,0,7.697828958043829,None,,,,PB,001,2024-11-29_21h38.36.646,soloproject,2024.1.5,None,2024-11-29 21h38.54.925233 +0530,
/Users/mac/Desktop/0_Solo/flowercn2.jpg,,1.067,n,,,,,0,39,39,15,698.0906245830702,,,,,,,,,,,,,,,,,,,,,,698.0423216250492,698.0906245830702,698.0906245830702,705.0382580420701,705.0892096250318,,706.0812954580178,y,0,7.986341707990505,None,,,,PB,001,2024-11-29_21h38.36.646,soloproject,2024.1.5,None,2024-11-29 21h38.54.925233 +0530,
/Users/mac/Desktop/0_Solo/mmbwn2.jpg,,0.05,n,,,,,0,40,40,18,706.1027495000744,,,,,,,,,,,,,,,,,,,,,,706.0821565421065,706.1027495000744,706.1027495000744,713.0808971670922,713.094036958064,713.1279843330849,713.9661114170449,y,0,7.858214291976765,None,,,,PB,001,2024-11-29_21h38.36.646,soloproject,2024.1.5,None,2024-11-29 21h38.54.925233 +0530,
/Users/mac/Desktop/0_Solo/rockcn6.jpg,,0.8,n,,,,,0,41,41,74,713.9875998750795,,,,,,,,,,,,,,,,,,,,,,713.9678920831066,713.9875998750795,713.9875998750795,720.9635230830172,720.9785020420095,721.7564502920723,722.8084296670277,n,0,8.813966833986342,None,,,,PB,001,2024-11-29_21h38.36.646,soloproject,2024.1.5,None,2024-11-29 21h38.54.925233 +0530,
/Users/mac/Desktop/0_Solo/landscapebwn6.jpg,,0.4,n,,,,,0,42,42,95,722.8576261251001,,,,,,,,,,,,,,,,,,,,,,722.8095539580099,722.8576261251001,722.8576261251001,729.8061821250012,729.8566488330252,730.195199458045,734.1532202500384,y,0,11.283381208078936,None,,,,PB,001,2024-11-29_21h38.36.646,soloproject,2024.1.5,None,2024-11-29 21h38.54.925233 +0530,
/Users/mac/Desktop/0_Solo/mmc5.jpg,,0.8,y,,,,,0,43,43,8,734.1801678750198,,,,,,,,,,,,,,,,,,,,,,734.1540585830808,734.1801678750198,734.1801678750198,741.1471705420408,741.1729952080641,741.9402299580397,742.4425568330334,n,0,8.256406875094399,None,,,,PB,001,2024-11-29_21h38.36.646,soloproject,2024.1.5,None,2024-11-29 21h38.54.925233 +0530,
/Users/mac/Desktop/0_Solo/mmbwn5.jpg,,0.8,n,,,,,0,44,44,37,742.4665031670593,,,,,,,,,,,,,,,,,,,,,,742.4436805000296,742.4665031670593,742.4665031670593,749.4397906250088,749.4615447500255,750.2291451670462,750.5429231669987,y,0,8.068027957924642,None,,,,PB,001,2024-11-29_21h38.36.646,soloproject,2024.1.5,None,2024-11-29 21h38.54.925233 +0530,
/Users/mac/Desktop/0_Solo/rockbwn4.jpg,,0.2,n,,,,,0,45,45,53,750.5682165420149,,,,,,,,,,,,,,,,,,,,,,750.5442515000468,750.5682165420149,750.5682165420149,757.5399408750236,757.5624459580285,757.7292748750187,758.5285403330345,n,0,7.956539832986891,None,,,,PB,001,2024-11-29_21h38.36.646,soloproject,2024.1.5,None,2024-11-29 21h38.54.925233 +0530,
/Users/mac/Desktop/0_Solo/flowercn6.jpg,,0.8,n,,,,,0,46,46,49,758.5635069580749,,,,,,,,,,,,,,,,,,,,,,758.5299054580973,758.5635069580749,758.5635069580749,765.5230920000467,765.5574105420383,766.3122055000858,766.4830317921005,y,0,7.91450758301653,None,,,,PB,001,2024-11-29_21h38.36.646,soloproject,2024.1.5,None,2024-11-29 21h38.54.925233 +0530,
/Users/mac/Desktop/0_Solo/flowerc1.jpg,,0.8,y,,,,,0,47,47,58,766.5652629580582,,,,,,,,,,,,,,,,,,,,,,766.4841950830305,766.5652629580582,766.5652629580582,773.4830860830843,773.5628794170916,774.2795796670252,774.4941557080019,y,0,7.9209020000416785,None,,,,PB,001,2024-11-29_21h38.36.646,soloproject,2024.1.5,None,2024-11-29 21h38.54.925233 +0530,
/Users/mac/Desktop/0_Solo/mmbw1.jpg,,0.533,y,,,,,0,48,48,6,774.5217138750013,,,,,,,,,,,,,,,,,,,,,,774.4952913330635,774.5217138750013,774.5217138750013,781.490673292079,781.5125080000143,782.0134343330283,782.8282018750906,y,0,8.30328437499702,None,,,,PB,001,2024-11-29_21h38.36.646,soloproject,2024.1.5,None,2024-11-29 21h38.54.925233 +0530,
/Users/mac/Desktop/0_Solo/mmbw3.jpg,,0.533,y,,,,,0,49,49,46,782.8524771250086,,,,,,,,,,,,,,,,,,,,,,782.829298208002,782.8524771250086,782.8524771250086,789.8232949170051,789.8469540830702,790.3472041670466,790.8522805829998,n,0,7.990587874897756,None,,,,PB,001,2024-11-29_21h38.36.646,soloproject,2024.1.5,None,2024-11-29 21h38.54.925233 +0530,
/Users/mac/Desktop/0_Solo/rockbwn1.jpg,,0.533,n,,,,,0,50,50,35,790.8886984171113,,,,,,,,,,,,,,,,,,,,,,790.8589642920997,790.8886984171113,790.8886984171113,797.8501801670063,797.8803713750094,798.3801169580547,799.2328262500232,n,0,8.334470250061713,None,,,,PB,001,2024-11-29_21h38.36.646,soloproject,2024.1.5,None,2024-11-29 21h38.54.925233 +0530,
/Users/mac/Desktop/0_Solo/landscapebw6.jpg,,0.05,y,,,,,0,51,51,39,799.264248499996,,,,,,,,,,,,,,,,,,,,,,799.2344194171019,799.264248499996,799.264248499996,806.2330157080432,806.2585420830874,806.2805449580774,807.383124792017,y,0,8.115123874973506,None,,,,PB,001,2024-11-29_21h38.36.646,soloproject,2024.1.5,None,2024-11-29 21h38.54.925233 +0530,
/Users/mac/Desktop/0_Solo/rockbw2.jpg,,0.8,y,,,,,0,52,52,91,807.4070368329994,,,,,,,,,,,,,,,,,,,,,,807.3843001250643,807.4070368329994,807.4070368329994,814.3828014580067,814.3964880000567,815.1755397079978,815.6601349581033,y,0,8.243526916950941,None,,,,PB,001,2024-11-29_21h38.36.646,soloproject,2024.1.5,None,2024-11-29 21h38.54.925233 +0530,
/Users/mac/Desktop/0_Solo/flowerbw6.jpg,,1.067,y,,,,,0,53,53,87,815.7204261670122,,,,,,,,,,,,,,,,,,,,,,815.660825750092,815.7204261670122,815.7204261670122,822.6576502081007,822.7145181250526,823.7142153331079,823.7166330420878,y,0,7.990893624955788,None,,,,PB,001,2024-11-29_21h38.36.646,soloproject,2024.1.5,None,2024-11-29 21h38.54.925233 +0530,
/Users/mac/Desktop/0_Solo/rockc4.jpg,,0.4,y,,,,,0,54,54,65,823.7416876670904,,,,,,,,,,,,,,,,,,,,,,823.7175566250226,823.7416876670904,823.7416876670904,830.7166232500458,830.7305088330759,831.1142830830067,831.9124308750033,y,0,8.157648500055075,None,,,,PB,001,2024-11-29_21h38.36.646,soloproject,2024.1.5,None,2024-11-29 21h38.54.925233 +0530,
/Users/mac/Desktop/0_Solo/landscapec3.jpg,,0.8,y,,,,,0,55,55,24,831.9587290000636,,,,,,,,,,,,,,,,,,,,,,831.9134381670738,831.9587290000636,831.9587290000636,838.909083042061,838.9479602921056,839.6979910000227,840.1165690000635,y,0,8.151864583021961,None,,,,PB,001,2024-11-29_21h38.36.646,soloproject,2024.1.5,None,2024-11-29 21h38.54.925233 +0530,
/Users/mac/Desktop/0_Solo/flowerbw4.jpg,,0.8,y,,,,,0,56,56,23,840.1566928750835,,,,,,,,,,,,,,,,,,,,,,840.1180531251011,840.1566928750835,840.1566928750835,847.1185972921085,847.1478694170946,847.9149686250603,848.7788237920031,n,0,8.613761084037833,None,,,,PB,001,2024-11-29_21h38.36.646,soloproject,2024.1.5,None,2024-11-29 21h38.54.925233 +0530,
/Users/mac/Desktop/0_Solo/mmbwn6.jpg,,0.05,n,,,,,0,57,57,93,848.8102255000267,,,,,,,,,,,,,,,,,,,,,,848.7799717501039,848.8102255000267,848.8102255000267,855.775834833039,855.7983199170558,855.8144892500713,856.5810397500172,y,0,7.766874333028682,None,,,,PB,001,2024-11-29_21h38.36.646,soloproject,2024.1.5,None,2024-11-29 21h38.54.925233 +0530,
/Users/mac/Desktop/0_Solo/mmbwn3.jpg,,0.2,n,,,,,0,58,58,66,856.6045941670891,,,,,,,,,,,,,,,,,,,,,,856.582179792109,856.6045941670891,856.6045941670891,863.5760237920331,863.5988553750794,863.7661208750214,865.0120409170631,y,0,8.396011583972722,None,,,,PB,001,2024-11-29_21h38.36.646,soloproject,2024.1.5,None,2024-11-29 21h38.54.925233 +0530,
/Users/mac/Desktop/0_Solo/landscapecn1.jpg,,0.8,n,,,,,0,59,59,30,865.0770232500508,,,,,,,,,,,,,,,,,,,,,,865.0129443330225,865.0770232500508,865.0770232500508,872.00962062506,872.065637917025,872.7988843750209,873.5465987920761,n,0,8.457987291039899,None,,,,PB,001,2024-11-29_21h38.36.646,soloproject,2024.1.5,None,2024-11-29 21h38.54.925233 +0530,
/Users/mac/Desktop/0_Solo/rockc3.jpg,,0.8,y,,,,,0,60,60,5,873.6204045830527,,,,,,,,,,,,,,,,,,,,,,873.5479355830466,873.6204045830527,873.6204045830527,880.559740500059,880.6156688330229,881.3491187080508,881.4961995420745,y,0,7.86306629201863,None,,,,PB,001,2024-11-29_21h38.36.646,soloproject,2024.1.5,None,2024-11-29 21h38.54.925233 +0530,
/Users/mac/Desktop/0_Solo/rockcn2.jpg,,1.067,n,,,,,0,61,61,40,881.5260640000924,,,,,,,,,,,,,,,,,,,,,,881.4971344170626,881.5260640000924,881.5260640000924,888.4932918749982,888.5160874170251,,889.4971148750046,n,0,7.968255916959606,None,,,,PB,001,2024-11-29_21h38.36.646,soloproject,2024.1.5,None,2024-11-29 21h38.54.925233 +0530,
/Users/mac/Desktop/0_Solo/landscapebwn2.jpg,,1.067,n,,,,,0,62,62,43,889.5236031250097,,,,,,,,,,,,,,,,,,,,,,889.4980247080093,889.5236031250097,889.5236031250097,896.493035875028,896.5160850420361,,897.3022690420039,y,0,7.771519124973565,None,,,,PB,001,2024-11-29_21h38.36.646,soloproject,2024.1.5,None,2024-11-29 21h38.54.925233 +0530,
/Users/mac/Desktop/0_Solo/flowerc5.jpg,,0.2,y,,,,,0,63,63,83,897.3702855830779,,,,,,,,,,,,,,,,,,,,,,897.3030975420261,897.3702855830779,897.3702855830779,904.302984542097,904.3667031250661,904.4984988330398,905.0692816670053,y,0,7.692414000048302,None,,,,PB,001,2024-11-29_21h38.36.646,soloproject,2024.1.5,None,2024-11-29 21h38.54.925233 +0530,
/Users/mac/Desktop/0_Solo/landscapebw4.jpg,,0.4,y,,,,,0,64,64,3,905.0973810420837,,,,,,,,,,,,,,,,,,,,,,905.0703803329961,905.0973810420837,905.0973810420837,912.0688919170061,912.0945504170377,912.4665102080908,914.9181190830423,y,0,9.814499041065574,None,,,,PB,001,2024-11-29_21h38.36.646,soloproject,2024.1.5,None,2024-11-29 21h38.54.925233 +0530,
/Users/mac/Desktop/0_Solo/mmc6.jpg,,0.533,y,,,,,0,65,65,27,914.9426156670088,,,,,,,,,,,,,,,,,,,,,,914.9191922080936,914.9426156670088,914.9426156670088,921.9189650421031,921.932167250081,922.4448535420233,922.6187689580256,y,0,7.670307124964893,None,,,,PB,001,2024-11-29_21h38.36.646,soloproject,2024.1.5,None,2024-11-29 21h38.54.925233 +0530,
/Users/mac/Desktop/0_Solo/flowercn3.jpg,,0.05,n,,,,,0,66,66,73,922.7063680420397,,,,,,,,,,,,,,,,,,,,,,922.6197662920458,922.7063680420397,922.7063680420397,929.6214037920581,929.69961625,929.6685726670548,931.4301033751108,y,0,8.720608417061158,None,,,,PB,001,2024-11-29_21h38.36.646,soloproject,2024.1.5,None,2024-11-29 21h38.54.925233 +0530,
/Users/mac/Desktop/0_Solo/flowerbwn2.jpg,,0.05,n,,,,,0,67,67,50,931.4535022081109,,,,,,,,,,,,,,,,,,,,,,931.4309843330411,931.4535022081109,931.4535022081109,938.4287760830484,938.4449624170084,938.4666247080313,939.6093277080217,n,0,8.143499874975532,None,,,,PB,001,2024-11-29_21h38.36.646,soloproject,2024.1.5,None,2024-11-29 21h38.54.925233 +0530,
/Users/mac/Desktop/0_Solo/flowercn5.jpg,,1.067,n,,,,,0,68,68,21,939.6271147080697,,,,,,,,,,,,,,,,,,,,,,939.6101978750667,939.6271147080697,939.6271147080697,946.6043464581016,946.6169359170599,947.6674217500258,947.6994242500514,n,0,8.068981457967311,None,,,,PB,001,2024-11-29_21h38.36.646,soloproject,2024.1.5,None,2024-11-29 21h38.54.925233 +0530,
/Users/mac/Desktop/0_Solo/flowerbw2.jpg,,0.05,y,,,,,0,69,69,34,947.7457473750692,,,,,,,,,,,,,,,,,,,,,,947.7004864580231,947.7457473750692,947.7457473750692,954.6946614580229,954.7335665420396,954.7335665420396,955.7817891250597,y,0,8.029058875050396,None,,,,PB,001,2024-11-29_21h38.36.646,soloproject,2024.1.5,None,2024-11-29 21h38.54.925233 +0530,
/Users/mac/Desktop/0_Solo/rockbwn6.jpg,,0.8,n,,,,,0,70,70,16,955.809978333069,,,,,,,,,,,,,,,,,,,,,,955.7828239171067,955.809978333069,955.809978333069,962.7784332500305,962.8014520830475,963.5663807920646,964.2051917080535,n,0,8.387562083895318,None,,,,PB,001,2024-11-29_21h38.36.646,soloproject,2024.1.5,None,2024-11-29 21h38.54.925233 +0530,
/Users/mac/Desktop/0_Solo/rockbw3.jpg,,0.533,y,,,,,0,71,71,60,964.2597539580893,,,,,,,,,,,,,,,,,,,,,,964.2067987920018,964.2597539580893,964.2597539580893,971.2028937500436,971.2514610000653,971.7339882920496,973.1258756670868,y,0,8.85418170900084,None,,,,PB,001,2024-11-29_21h38.36.646,soloproject,2024.1.5,None,2024-11-29 21h38.54.925233 +0530,
/Users/mac/Desktop/0_Solo/landscapec5.jpg,,0.4,y,,,,,0,72,72,89,973.1473372920882,,,,,,,,,,,,,,,,,,,,,,973.1267495830543,973.1473372920882,973.1473372920882,980.1210407080362,980.14642641705,980.5181295830989,981.772066583042,n,0,8.618096749996766,None,,,,PB,001,2024-11-29_21h38.36.646,soloproject,2024.1.5,None,2024-11-29 21h38.54.925233 +0530,
/Users/mac/Desktop/0_Solo/rockbw4.jpg,,1.067,y,,,,,0,73,73,51,981.8233400830068,,,,,,,,,,,,,,,,,,,,,,981.773047833005,981.8233400830068,981.8233400830068,988.7692913330393,988.8193562920205,989.8293967080535,990.13589004206,y,0,8.308819665922783,None,,,,PB,001,2024-11-29_21h38.36.646,soloproject,2024.1.5,None,2024-11-29 21h38.54.925233 +0530,
/Users/mac/Desktop/0_Solo/mmbw5.jpg,,0.533,y,,,,,0,74,74,92,990.1598940420663,,,,,,,,,,,,,,,,,,,,,,990.1367411250249,990.1598940420663,990.1598940420663,997.1370876670117,997.1520786670735,997.6698461250635,998.0825292920927,y,0,7.915024833055213,None,,,,PB,001,2024-11-29_21h38.36.646,soloproject,2024.1.5,None,2024-11-29 21h38.54.925233 +0530,
/Users/mac/Desktop/0_Solo/landscapebwn1.jpg,,0.05,n,,,,,0,75,75,10,998.1196575420909,,,,,,,,,,,,,,,,,,,,,,998.0837537500774,998.1196575420909,998.1196575420909,1005.0796205420047,1005.1135977921076,1005.1182581250323,1006.3423731670482,n,0,8.21128895797301,None,,,,PB,001,2024-11-29_21h38.36.646,soloproject,2024.1.5,None,2024-11-29 21h38.54.925233 +0530,
/Users/mac/Desktop/0_Solo/rockbwn3.jpg,,0.4,n,,,,,0,76,76,77,1006.3634750000201,,,,,,,,,,,,,,,,,,,,,,1006.3432148330612,1006.3634750000201,1006.3634750000201,1013.3379295830382,1013.3523207500111,1013.7361532080686,1014.7020586670842,n,0,8.335003499989398,None,,,,PB,001,2024-11-29_21h38.36.646,soloproject,2024.1.5,None,2024-11-29 21h38.54.925233 +0530,
/Users/mac/Desktop/0_Solo/landscapebwn3.jpg,,0.533,n,,,,,0,77,77,48,1014.7372935831081,,,,,,,,,,,,,,,,,,,,,,1014.7032327500638,1014.7372935831081,1014.7372935831081,,,,1019.298520875047,y,0,4.556023124954663,None,,,,PB,001,2024-11-29_21h38.36.646,soloproject,2024.1.5,None,2024-11-29 21h38.54.925233 +0530,
/Users/mac/Desktop/0_Solo/rockcn1.jpg,,0.533,n,,,,,0,78,78,22,1019.3213105420582,,,,,,,,,,,,,,,,,,,,,,1019.2994283330627,1019.3213105420582,1019.3213105420582,1026.2969105420634,1026.313317708089,1026.8194875000045,1028.3546320000896,y,0,9.028920334065333,None,,,,PB,001,2024-11-29_21h38.36.646,soloproject,2024.1.5,None,2024-11-29 21h38.54.925233 +0530,
/Users/mac/Desktop/0_Solo/rockbwn5.jpg,,0.2,n,,,,,0,79,79,63,1028.37722545804,,,,,,,,,,,,,,,,,,,,,,1028.3554538750323,1028.37722545804,1028.37722545804,1035.3546493330505,1035.3690022500232,1035.54769854201,1036.3331727500772,n,0,7.945428708102554,None,,,,PB,001,2024-11-29_21h38.36.646,soloproject,2024.1.5,None,2024-11-29 21h38.54.925233 +0530,
/Users/mac/Desktop/0_Solo/flowerbwn3.jpg,,0.2,n,,,,,0,80,80,4,1036.4052434170153,,,,,,,,,,,,,,,,,,,,,,1036.3341963751009,1036.4052434170153,1036.4052434170153,1043.3307350830873,1043.4034333750606,1043.519778707996,1044.649904500111,y,0,8.23665004200302,None,,,,PB,001,2024-11-29_21h38.36.646,soloproject,2024.1.5,None,2024-11-29 21h38.54.925233 +0530,
/Users/mac/Desktop/0_Solo/flowerbw3.jpg,,0.05,y,,,,,0,81,81,70,1044.719504583045,,,,,,,,,,,,,,,,,,,,,,1044.6509752920829,1044.719504583045,1044.719504583045,1051.646894167061,1051.7147822920233,1051.687328417087,1052.8667644170346,y,0,8.138691665953957,None,,,,PB,001,2024-11-29_21h38.36.646,soloproject,2024.1.5,None,2024-11-29 21h38.54.925233 +0530,
/Users/mac/Desktop/0_Solo/flowercn1.jpg,,0.8,n,,,,,0,82,82,71,1052.8884177081054,,,,,,,,,,,,,,,,,,,,,,1052.8678184170276,1052.8884177081054,1052.8884177081054,1059.8644424170488,1059.8815591250313,1060.6535996670136,1060.9173289170722,n,0,8.022310417029075,None,,,,PB,001,2024-11-29_21h38.36.646,soloproject,2024.1.5,None,2024-11-29 21h38.54.925233 +0530,
/Users/mac/Desktop/0_Solo/landscapec4.jpg,,0.533,y,,,,,0,83,83,79,1060.9421631250298,,,,,,,,,,,,,,,,,,,,,,1060.9183738330612,1060.9421631250298,1060.9421631250298,1067.9146282500587,1067.9371874580393,1068.4370822500205,1069.0557770000305,y,0,8.10760279209353,None,,,,PB,001,2024-11-29_21h38.36.646,soloproject,2024.1.5,None,2024-11-29 21h38.54.925233 +0530,
/Users/mac/Desktop/0_Solo/landscapebwn5.jpg,,1.067,n,,,,,0,84,84,9,1069.0962663750397,,,,,,,,,,,,,,,,,,,,,,1069.0566398330266,1069.0962663750397,1069.0962663750397,1076.0567878331058,1076.0878197920974,1077.1211877081078,1078.6342908330262,y,0,9.529395999968983,None,,,,PB,001,2024-11-29_21h38.36.646,soloproject,2024.1.5,None,2024-11-29 21h38.54.925233 +0530,
/Users/mac/Desktop/0_Solo/flowerc3.jpg,,1.067,y,,,,,0,85,85,1,1078.695772417006,,,,,,,,,,,,,,,,,,,,,,1078.6351264580153,1078.695772417006,1078.695772417006,1085.6313311670674,1085.6878334170906,1086.687061292003,1087.0565754580311,y,0,8.354510250035673,None,,,,PB,001,2024-11-29_21h38.36.646,soloproject,2024.1.5,None,2024-11-29 21h38.54.925233 +0530,
/Users/mac/Desktop/0_Solo/flowerbwn4.jpg,,0.2,n,,,,,0,86,86,84,1087.084030667087,,,,,,,,,,,,,,,,,,,,,,1087.057687667082,1087.084030667087,1087.084030667087,1094.0571033330634,1094.082562000025,1094.2544446249958,1095.1611760000233,y,0,8.065754167037085,None,,,,PB,001,2024-11-29_21h38.36.646,soloproject,2024.1.5,None,2024-11-29 21h38.54.925233 +0530,
/Users/mac/Desktop/0_Solo/mmbw4.jpg,,0.2,y,,,,,0,87,87,32,1095.1811634580372,,,,,,,,,,,,,,,,,,,,,,1095.1619875830365,1095.1811634580372,1095.1811634580372,1102.1568848750321,1102.1709182080813,1102.3497293750988,1103.2016025830526,n,0,8.016659834072925,None,,,,PB,001,2024-11-29_21h38.36.646,soloproject,2024.1.5,None,2024-11-29 21h38.54.925233 +0530,
/Users/mac/Desktop/0_Solo/landscapecn4.jpg,,0.533,n,,,,,0,88,88,41,1103.2195946670836,,,,,,,,,,,,,,,,,,,,,,1103.2024571670918,1103.2195946670836,1103.2195946670836,1110.1986607500585,1110.216041500098,1110.7219826250803,1111.291960917064,n,0,8.067007166915573,None,,,,PB,001,2024-11-29_21h38.36.646,soloproject,2024.1.5,None,2024-11-29 21h38.54.925233 +0530,
/Users/mac/Desktop/0_Solo/mmc3.jpg,,1.067,y,,,,,0,89,89,56,1111.3264133330667,,,,,,,,,,,,,,,,,,,,,,1111.2930781251052,1111.3264133330667,1111.3264133330667,1118.2909052500036,1118.3219405000564,,1119.1083564170403,y,0,7.774309291038662,None,,,,PB,001,2024-11-29_21h38.36.646,soloproject,2024.1.5,None,2024-11-29 21h38.54.925233 +0530,
/Users/mac/Desktop/0_Solo/flowerc4.jpg,,1.067,y,,,,,0,90,90,90,1119.1816933751106,,,,,,,,,,,,,,,,,,,,,,1119.1092728330987,1119.1816933751106,1119.1816933751106,1126.1103357920656,1126.1723002500366,1127.1720822500065,1127.3085933750262,n,0,8.123126707971096,None,,,,PB,001,2024-11-29_21h38.36.646,soloproject,2024.1.5,None,2024-11-29 21h38.54.925233 +0530,
/Users/mac/Desktop/0_Solo/mmbw2.jpg,,0.2,y,,,,,0,91,91,7,1127.3399949580198,,,,,,,,,,,,,,,,,,,,,,1127.30964125006,1127.3399949580198,1127.3399949580198,1134.3083866250236,1134.333546375041,1134.5054871250177,1135.7360531250015,y,0,8.385783749981783,None,,,,PB,001,2024-11-29_21h38.36.646,soloproject,2024.1.5,None,2024-11-29 21h38.54.925233 +0530,
/Users/mac/Desktop/0_Solo/landscapebw3.jpg,,0.8,y,,,,,0,92,92,82,1135.760049042059,,,,,,,,,,,,,,,,,,,,,,1135.7371263750829,1135.760049042059,1135.760049042059,1142.733258292079,1142.755334458081,1143.5212514580926,1144.1707792080706,y,0,8.407452084007673,None,,,,PB,001,2024-11-29_21h38.36.646,soloproject,2024.1.5,None,2024-11-29 21h38.54.925233 +0530,
/Users/mac/Desktop/0_Solo/landscapecn6.jpg,,1.067,n,,,,,0,93,93,69,1144.1954617920564,,,,,,,,,,,,,,,,,,,,,,1144.1717125420691,1144.1954617920564,1144.1954617920564,1151.1667260420509,1151.1891734170495,1152.2219913750887,1152.7524547080975,n,0,8.548296458087862,None,,,,PB,001,2024-11-29_21h38.36.646,soloproject,2024.1.5,None,2024-11-29 21h38.54.925233 +0530,
/Users/mac/Desktop/0_Solo/landscapec1.jpg,,0.8,y,,,,,0,94,94,86,1152.9178904170403,,,,,,,,,,,,,,,,,,,,,,1152.753553167102,1152.9178904170403,1152.9178904170403,1159.7602632920025,1159.9173121250933,1160.5560415830696,1161.2094995829975,y,0,8.287685582996346,None,,,,PB,001,2024-11-29_21h38.36.646,soloproject,2024.1.5,None,2024-11-29 21h38.54.925233 +0530,
/Users/mac/Desktop/0_Solo/landscapebw1.jpg,,0.4,y,,,,,0,95,95,31,1161.2398123750463,,,,,,,,,,,,,,,,,,,,,,1161.2103864580858,1161.2398123750463,1161.2398123750463,1168.2079007501015,1168.2339932920877,1168.60821270803,1169.2363357919967,y,0,7.984323917073198,None,,,,PB,001,2024-11-29_21h38.36.646,soloproject,2024.1.5,None,2024-11-29 21h38.54.925233 +0530,
,,,,,,,,,,,,,,,,,,,,,,,,,,,,,,,,,,,,,,,,,,,,,1169.237632708042,1169.2560402500676,1169.7408856670372,PB,001,2024-11-29_21h38.36.646,soloproject,2024.1.5,None,2024-11-29 21h38.54.925233 +0530,
