delay,freq,condition,trials.thisRepN,trials.thisTrialN,trials.thisN,trials.thisIndex,thisRow.t,notes,trial.started,polygon.started,polygon_2.started,key_resp.started,polygon.stopped,trial.stopped,key_resp.keys,key_resp.rt,key_resp.duration,beep.started,sound_1.started,sound_1.stopped,beep.stopped,response.started,text.started,textbox.started,button.started,response.stopped,textbox.text,button.numClicks,button.timesOn,button.timesOff,participant,session,date,expName,psychopyVersion,frameRate,expStart,
0.1,1000,unexp,0,0,0,3,0.12214519991539419,,0.11739449994638562,0.12214519991539419,1.0063866999698803,1.0063866999698803,1.1228408999741077,4.64797729998827,space,3.6302966000512242,None,4.650069099967368,4.755875266568425,5.066157899913378,5.052153499913402,5.052190299960785,5.066157899913378,5.066157899913378,5.066157899913378,10.790501799900085,102,1,[5.735941000049934],[5.735951100010425],257325,001,2024-11-14_19h20.13.916,intentional binding task,2024.1.5,None,2024-11-14 19h20.25.146951 +0530,
0.7,400,exp,0,1,1,5,10.805847299983725,,10.792283899965696,10.805847299983725,11.805632599978708,11.805632599978708,11.805632599978708,12.356796899926849,space,0.5466221999377012,None,12.357420899905264,13.073267266565624,13.387355099897832,13.376555099966936,13.376594299916178,13.387355099897832,13.387355099897832,13.387355099897832,15.907633599941619,298,1,[2.529372700024396],[2.529386500013061],257325,001,2024-11-14_19h20.13.916,intentional binding task,2024.1.5,None,2024-11-14 19h20.25.146951 +0530,
0.4,400,exp,0,2,2,7,15.922231999924406,,15.908734499942511,15.922231999924406,16.922220399952494,16.922220399952494,16.922220399952494,17.556770699913613,space,0.6185833999188617,None,17.557506899931468,17.972315966562988,,18.243413199903443,18.243447899934836,18.255644399905577,18.255644399905577,18.255644399905577,19.690840999945067,478,1,[1.4455219999654219],[1.4455345999449492],257325,001,2024-11-14_19h20.13.916,intentional binding task,2024.1.5,None,2024-11-14 19h20.25.146951 +0530,
0.1,1000,unexp,0,3,3,0,19.705497999908403,,19.692058199900202,19.705497999908403,20.705396999954246,20.705396999954246,20.705396999954246,21.689659599913284,space,0.9746054999995977,None,21.690082299988717,21.805175566642234,22.113674799911678,22.102264799992554,22.102312000002712,22.113674799911678,22.113674799911678,22.113674799911678,24.923464099992998,213,1,[2.8195179000031203],[2.81952929997351],257325,001,2024-11-14_19h20.13.916,intentional binding task,2024.1.5,None,2024-11-14 19h20.25.146951 +0530,
0.7,400,exp,0,4,4,8,24.93851549993269,,24.92417979997117,24.93851549993269,25.93842549994588,25.93842549994588,25.93842549994588,26.37300099991262,space,0.422943799989298,None,26.37367669993546,27.088481566581564,27.393927299999632,27.381933799944818,27.381960599916056,27.393927299999632,27.393927299999632,27.393927299999632,29.323082999908365,398,1,[1.9381876999977976],[1.9382001000922173],257325,001,2024-11-14_19h20.13.916,intentional binding task,2024.1.5,None,2024-11-14 19h20.25.146951 +0530,
0.7,1000,unexp,0,5,5,2,29.338396699982695,,29.324235699954443,29.338396699982695,30.338280099909753,30.338280099909753,30.338280099909753,30.58950639993418,space,0.2457423999439925,None,30.590220399899408,31.294991266626553,,31.564724599942565,31.56476089998614,31.57864109997172,31.57864109997172,31.57864109997172,33.09093559999019,473,1,[1.5242581999627873],[1.5242686999263242],257325,001,2024-11-14_19h20.13.916,intentional binding task,2024.1.5,None,2024-11-14 19h20.25.146951 +0530,
0.1,400,exp,0,6,6,6,33.105106899980456,,33.09167399990838,33.105106899980456,34.10595699993428,34.10595699993428,34.10595699993428,34.424029499990866,space,0.31478899996727705,None,34.42509929998778,34.53810916660974,34.85649319994263,34.83248359989375,34.83254449989181,34.85649319994263,34.85649319994263,34.85649319994263,36.0731123998994,192,1,[1.2380212000571191],[1.2380304000107571],257325,001,2024-11-14_19h20.13.916,intentional binding task,2024.1.5,None,2024-11-14 19h20.25.146951 +0530,
0.4,1000,unexp,0,7,7,4,36.08817199990153,,36.073787799919955,36.08817199990153,37.08849849994294,37.08849849994294,37.08849849994294,37.35702869994566,space,0.263840000028722,None,37.35788019991014,37.77145466657045,38.09085519996006,38.07476569991559,38.074810099904425,38.09085519996006,38.09085519996006,38.09085519996006,40.456308999913745,193,1,[2.3784242999972776],[2.3784558000043035],257325,001,2024-11-14_19h20.13.916,intentional binding task,2024.1.5,None,2024-11-14 19h20.25.146951 +0530,
0.4,1000,unexp,0,8,8,1,40.471669999998994,,40.45744329993613,40.471669999998994,41.45511079998687,41.45511079998687,41.47162609989755,41.822739899973385,space,0.36596099997404963,None,41.823151399963535,42.23814536660599,42.549742899951525,42.539816799922846,42.53984539990779,42.549742899951525,42.549742899951525,42.549742899951525,46.33895519992802,218,1,[3.7963465000502765],[3.796355800004676],257325,001,2024-11-14_19h20.13.916,intentional binding task,2024.1.5,None,2024-11-14 19h20.25.146951 +0530,
0.1,400,exp,0,9,9,9,46.354363399907015,,46.339918299927376,46.354363399907015,47.354564099921845,47.354564099921845,47.354564099921845,48.2220365999965,space,0.8517873000819236,None,48.222763099940494,48.337637266671905,48.64125429990236,48.63130349991843,48.63134229998104,48.64125429990236,48.64125429990236,48.64125429990236,50.58905029995367,298,1,[1.956186500028707],[1.9561944999732077],257325,001,2024-11-14_19h20.13.916,intentional binding task,2024.1.5,None,2024-11-14 19h20.25.146951 +0530,
0.7,400,exp,1,0,10,5,50.60426639998332,,50.589693199959584,50.60426639998332,51.60425049997866,51.60425049997866,51.60425049997866,52.055621299892664,space,0.4464346000459045,None,52.05638349999208,52.770783366581114,53.085845299996436,53.07231689989567,53.07235229993239,53.085845299996436,53.085845299996436,53.085845299996436,54.321965999901295,128,1,[1.2471557999961078],[1.2471642000600696],257325,001,2024-11-14_19h20.13.916,intentional binding task,2024.1.5,None,2024-11-14 19h20.25.146951 +0530,
0.1,400,exp,1,1,11,9,54.33725819992833,,54.32274669990875,54.33725819992833,55.33713859994896,55.33713859994896,55.33713859994896,55.6387124999892,space,0.2937468000454828,None,55.63915399997495,55.7540210666523,56.06009109993465,56.051563899964094,56.05159489996731,56.06009109993465,56.06009109993465,56.06009109993465,59.022701199981384,43,1,[2.969381000031717],[2.969388399971649],257325,001,2024-11-14_19h20.13.916,intentional binding task,2024.1.5,None,2024-11-14 19h20.25.146951 +0530,
0.1,1000,unexp,1,2,12,0,59.03724279999733,,59.02344969997648,59.03724279999733,60.037363299983554,60.037363299983554,60.037363299983554,60.322022999986075,space,0.2784564000321552,None,60.32247189991176,60.43745246663845,60.7501634999644,60.7340437999228,60.73410010000225,60.7501634999644,60.7501634999644,60.7501634999644,63.338654799968936,192,1,[2.601605600095354],[2.6016134000383317],257325,001,2024-11-14_19h20.13.916,intentional binding task,2024.1.5,None,2024-11-14 19h20.25.146951 +0530,
0.1,1000,unexp,1,3,13,3,63.35407789994497,,63.33944189990871,63.35407789994497,64.35383059992455,64.35383059992455,64.35383059992455,64.40491869999096,space,0.03854750003665686,None,64.40562269999646,64.52017606661344,64.8313429999398,64.82279839995317,64.82282429991756,64.8313429999398,64.8313429999398,64.8313429999398,66.80573859997094,822,1,[1.9814512999728322],[1.981458400026895],257325,001,2024-11-14_19h20.13.916,intentional binding task,2024.1.5,None,2024-11-14 19h20.25.146951 +0530,
0.4,1000,unexp,1,4,14,4,66.82055019994732,,66.80687899992336,66.82055019994732,67.8204531999072,67.8204531999072,67.8204531999072,68.25459299993236,space,0.4305471000261605,None,68.2550149000017,68.67006396659805,68.98021419998258,68.9714590999065,68.97148710000329,68.98021419998258,68.98021419998258,68.98021419998258,70.30506629997399,128,1,[1.3322208999888971],[1.3322284000460058],257325,001,2024-11-14_19h20.13.916,intentional binding task,2024.1.5,None,2024-11-14 19h20.25.146951 +0530,
0.7,1000,unexp,1,5,15,2,70.32031439989805,,70.30582879995927,70.32031439989805,71.32035219995305,71.32035219995305,71.32035219995305,71.70471399999224,space,0.37481980002485216,None,71.70517909992486,72.4207336665752,72.73817989998497,72.72238339995965,72.72243119997438,72.73817989998497,72.73817989998497,72.73817989998497,77.9220653999364,143,1,[5.196817599935457],[5.196829600026831],257325,001,2024-11-14_19h20.13.916,intentional binding task,2024.1.5,None,2024-11-14 19h20.25.146951 +0530,
0.4,400,exp,1,6,16,7,77.93639569997322,,77.92331489990465,77.93639569997322,78.93635489989538,78.93635489989538,78.93635489989538,79.18744099989999,space,0.24583450006321073,None,79.18786289996933,79.60355196666593,79.91167659999337,79.90288399998099,79.9029224999249,79.91167659999337,79.91167659999337,79.91167659999337,81.18741129990667,129,1,[1.282596500008367],[1.2826040000654757],257325,001,2024-11-14_19h20.13.916,intentional binding task,2024.1.5,None,2024-11-14 19h20.25.146951 +0530,
0.7,400,exp,1,7,17,8,81.20322829997167,,81.18806009995751,81.20322829997167,82.18698429991491,82.18698429991491,82.2036453000037,82.75412249995861,space,0.5545096999267116,None,82.75455369998235,83.47028776660251,83.77995779993944,83.77222239994444,83.77224540000316,83.77995779993944,83.77995779993944,83.77995779993944,87.27124859998003,348,1,[3.497660299995914],[3.4976680000545457],257325,001,2024-11-14_19h20.13.916,intentional binding task,2024.1.5,None,2024-11-14 19h20.25.146951 +0530,
0.1,400,exp,1,8,18,6,87.286198399961,,87.27196449995972,87.286198399961,88.28613259992562,88.28613259992562,88.28613259992562,88.45410789991729,space,0.15878130006603897,None,88.4545145999873,88.56983106659415,88.86954339989461,88.86153629992623,88.8615549999522,88.86954339989461,88.86954339989461,88.86954339989461,90.63787269999739,237,1,[1.7747683000052348],[1.7747817999916151],257325,001,2024-11-14_19h20.13.916,intentional binding task,2024.1.5,None,2024-11-14 19h20.25.146951 +0530,
0.4,1000,unexp,1,9,19,1,90.65256739989854,,90.63903379999101,90.65256739989854,91.65269809996244,91.65269809996244,91.65269809996244,93.18736009998247,space,1.529088499955833,None,93.18811559991445,93.6022397665695,93.9302196999779,93.91845389991067,93.91848899994511,93.9302196999779,93.9302196999779,93.9302196999779,95.43746719998308,273,1,[1.5172610000008717],[1.517269599949941],257325,001,2024-11-14_19h20.13.916,intentional binding task,2024.1.5,None,2024-11-14 19h20.25.146951 +0530,
0.1,1000,unexp,2,0,20,0,95.45254809991457,,95.43812189996243,95.45254809991457,96.45230109989643,96.45230109989643,96.45230109989643,97.23699349991512,space,0.7828453999245539,None,97.23740689991973,97.33739076665758,97.65246709994972,97.64057669998147,97.640610500006,97.65246709994972,97.65246709994972,97.65246709994972,99.28714929998387,468,1,[1.6447495999746025],[1.6447591999312863],257325,001,2024-11-14_19h20.13.916,intentional binding task,2024.1.5,None,2024-11-14 19h20.25.146951 +0530,
0.1,1000,unexp,2,1,21,3,99.30235439992975,,99.28781949996483,99.30235439992975,100.3024763999274,100.3024763999274,100.3024763999274,101.73657869989984,space,1.4260667000198737,None,101.73699719994329,101.85191266663993,102.16411659994628,102.15399639995303,102.15403179998975,102.16411659994628,102.16411659994628,102.16411659994628,103.32106200000271,386,1,[1.1650561999995261],[1.165071100112982],257325,001,2024-11-14_19h20.13.916,intentional binding task,2024.1.5,None,2024-11-14 19h20.25.146951 +0530,
0.4,400,exp,2,2,22,7,103.33533609996084,,103.32222579990048,103.33533609996084,104.33545679994859,104.33545679994859,104.33545679994859,104.80351009999868,space,0.4517436999594793,None,104.80454609997105,105.21860786661661,105.51963269989938,105.50701709999703,105.50705839996226,105.51963269989938,105.51963269989938,105.51963269989938,107.23707189993002,463,1,[1.7284737000009045],[1.7284855999751016],257325,001,2024-11-14_19h20.13.916,intentional binding task,2024.1.5,None,2024-11-14 19h20.25.146951 +0530,
0.4,1000,unexp,2,3,23,1,107.25196949997917,,107.2377414999064,107.25196949997917,108.2519054999575,108.2519054999575,108.2519054999575,108.83624069998041,space,0.5817876999499276,None,108.8368900999194,109.25158896664313,109.56489719997626,109.55515949998517,109.55518669995945,109.56489719997626,109.56489719997626,109.56489719997626,110.7869773999555,347,1,[1.2289116000756621],[1.2289238000521436],257325,001,2024-11-14_19h20.13.916,intentional binding task,2024.1.5,None,2024-11-14 19h20.25.146951 +0530,
0.7,400,exp,2,4,24,8,110.80166339990683,,110.78811829991173,110.80166339990683,111.80177669995464,111.80177669995464,111.80177669995464,112.05288239999209,space,0.24638910009525716,None,112.05333099991549,112.76846296660757,113.0810358999297,113.07241789996624,113.07244859996717,113.0810358999297,113.0810358999297,113.0810358999297,114.45304749999195,263,1,[1.3790753999492154],[1.379087800043635],257325,001,2024-11-14_19h20.13.916,intentional binding task,2024.1.5,None,2024-11-14 19h20.25.146951 +0530,
0.7,400,exp,2,5,25,5,114.46831709996331,,114.45419309998397,114.46831709996331,115.46841309999581,115.46841309999581,115.46841309999581,115.73634689999744,space,0.2665336999343708,None,115.73704519995954,116.45171346661324,116.76374359999318,116.75146689999383,116.7514992998913,116.76374359999318,116.76374359999318,116.76374359999318,119.66923359991051,643,1,[2.915580300032161],[2.9155877000885084],257325,001,2024-11-14_19h20.13.916,intentional binding task,2024.1.5,None,2024-11-14 19h20.25.146951 +0530,
0.4,1000,unexp,2,6,26,4,119.6846847999841,,119.66992699995171,119.6846847999841,120.6846534999786,120.6846534999786,120.6846534999786,121.35257019998971,space,0.6511746000032872,None,121.35327779990621,121.76797526661927,122.07238199992571,122.06227219989523,122.06231919990387,122.07238199992571,122.07238199992571,122.07238199992571,123.80253210000228,342,1,[1.7369999000802636],[1.737009400036186],257325,001,2024-11-14_19h20.13.916,intentional binding task,2024.1.5,None,2024-11-14 19h20.25.146951 +0530,
0.1,400,exp,2,7,27,6,123.81794569990598,,123.80340159998741,123.81794569990598,124.81799439992756,124.81799439992756,124.81799439992756,124.95282489992678,space,0.13062029995489866,None,124.95358279999346,125.06807406660324,125.37620139995124,125.3664971999824,125.36652939999476,125.37620139995124,125.37620139995124,125.37620139995124,128.91921329998877,247,1,[3.550955899991095],[3.550964300055057],257325,001,2024-11-14_19h20.13.916,intentional binding task,2024.1.5,None,2024-11-14 19h20.25.146951 +0530,
0.7,1000,unexp,2,8,28,2,128.934259200003,,128.91990609990899,128.934259200003,129.93417779996525,129.93417779996525,129.93417779996525,130.83544929989148,space,0.8985136999981478,None,130.8358507999219,131.550828566604,131.86359129997436,131.85232269996777,131.8523533999687,131.86359129997436,131.86359129997436,131.86359129997436,133.11879009997938,273,1,[1.2647653999738395],[1.2647752000484616],257325,001,2024-11-14_19h20.13.916,intentional binding task,2024.1.5,None,2024-11-14 19h20.25.146951 +0530,
0.1,400,exp,2,9,29,9,133.13408089999575,,133.11989939992782,133.13408089999575,134.13403459999245,134.13403459999245,134.13403459999245,134.65235170000233,space,0.5034418000141159,None,134.65305249998346,134.76750996656872,135.0781267998973,135.06659259996377,135.06662469997536,135.0781267998973,135.0781267998973,135.0781267998973,136.46883839997463,436,1,[1.4003601999720559],[1.4003717999439687],257325,001,2024-11-14_19h20.13.916,intentional binding task,2024.1.5,None,2024-11-14 19h20.25.146951 +0530,
0.4,400,exp,3,0,30,7,136.48387809994165,,136.4700743999565,136.48387809994165,137.4840416999068,137.4840416999068,137.4840416999068,138.35204119991977,space,0.8662464999360964,None,138.35247609997168,138.76731406659044,139.0749353999272,139.06611509993672,139.0661453999346,139.0749353999272,139.0749353999272,139.0749353999272,141.5855620999355,274,1,[2.517899499973282],[2.5179093000479043],257325,001,2024-11-14_19h20.13.916,intentional binding task,2024.1.5,None,2024-11-14 19h20.25.146951 +0530,
0.4,1000,unexp,3,1,31,4,141.60052310000174,,141.58627659990452,141.60052310000174,142.60046689992305,142.60046689992305,142.60046689992305,143.15152209997177,space,0.5388109000632539,None,143.1520422999747,143.5669722665955,143.87045899999794,143.86223309999332,143.8622597999638,143.87045899999794,143.87045899999794,143.87045899999794,147.60250409995206,243,1,[3.7385896000778303],[3.738601400051266],257325,001,2024-11-14_19h20.13.916,intentional binding task,2024.1.5,None,2024-11-14 19h20.25.146951 +0530,
0.4,1000,unexp,3,2,32,1,147.61694389989134,,147.6036837999709,147.61694389989134,148.61697719991207,148.61697719991207,148.61697719991207,148.81822589994408,space,0.1955013000406325,None,148.81864259997383,149.23355886660673,149.53678739990573,149.52530719991773,149.52534589997958,149.53678739990573,149.53678739990573,149.53678739990573,151.30231169995386,283,1,[1.7752259999979287],[1.7752368000801653],257325,001,2024-11-14_19h20.13.916,intentional binding task,2024.1.5,None,2024-11-14 19h20.25.146951 +0530,
0.1,400,exp,3,3,33,9,151.31748879991937,,151.30345429992303,151.31748879991937,152.3168762999121,152.3168762999121,152.3168762999121,152.63464800000656,space,0.3141039999900386,None,152.63503969996236,152.74984036659978,153.05290469992906,153.0415469999425,153.04159269994125,153.05290469992906,153.05290469992906,153.05290469992906,154.7021073999349,236,1,[1.6585874001029879],[1.6585988000733778],257325,001,2024-11-14_19h20.13.916,intentional binding task,2024.1.5,None,2024-11-14 19h20.25.146951 +0530,
0.1,400,exp,3,4,34,6,154.71698249992914,,154.70340349990875,154.71698249992914,155.7169156000018,155.7169156000018,155.7169156000018,156.11784039996564,space,0.38622300000861287,None,156.11848669999745,156.23322666663833,156.56492149992846,156.55509969999548,156.5551337999059,156.56492149992846,156.56492149992846,156.56492149992846,158.33443789999,476,1,[1.7777266000630334],[1.7777354000136256],257325,001,2024-11-14_19h20.13.916,intentional binding task,2024.1.5,None,2024-11-14 19h20.25.146951 +0530,
0.7,400,exp,3,5,35,5,158.34968509990722,,158.33516039990354,158.34968509990722,159.34966089995578,159.34966089995578,159.34966089995578,159.7676541999681,space,0.4022140000015497,None,159.7681953998981,160.48303856660303,,160.76304140000138,160.76308819989208,160.77268659998663,160.77268659998663,160.77268659998663,162.18511109997053,182,1,[1.4185247999848798],[1.4185381000861526],257325,001,2024-11-14_19h20.13.916,intentional binding task,2024.1.5,None,2024-11-14 19h20.25.146951 +0530,
0.1,1000,unexp,3,6,36,3,162.1995498999022,,162.18593999999575,162.1995498999022,163.19953089999035,163.19953089999035,163.19953089999035,163.61753139994107,space,0.4044528000522405,None,163.6179607999511,163.73299766664084,164.07111799996346,164.05899849999696,164.05903869995382,164.07111799996346,164.07111799996346,164.07111799996346,165.85070269997232,374,1,[1.7899530000286177],[1.7899629999883473],257325,001,2024-11-14_19h20.13.916,intentional binding task,2024.1.5,None,2024-11-14 19h20.25.146951 +0530,
0.7,1000,unexp,3,7,37,2,165.86613359989133,,165.8514136999147,165.86613359989133,166.866281399969,166.866281399969,166.866281399969,167.45109799993224,space,0.5834537000628188,None,167.45153449999634,168.1661643665905,168.47862700000405,168.46476749994326,168.4648051999975,168.47862700000405,168.47862700000405,168.47862700000405,169.65125329990406,236,1,[1.1842942000366747],[1.1843093000352383],257325,001,2024-11-14_19h20.13.916,intentional binding task,2024.1.5,None,2024-11-14 19h20.25.146951 +0530,
0.7,400,exp,3,8,38,8,169.6659418999916,,169.65247579989955,169.6659418999916,170.66582469991408,170.66582469991408,170.66582469991408,171.150682699983,space,0.4822251999285072,None,171.15142229991034,171.865886366639,172.16620340000372,172.15203499991912,172.15206189989112,172.16620340000372,172.16620340000372,172.16620340000372,173.86765039991587,827,1,[1.71228420000989],[1.7123005000175908],257325,001,2024-11-14_19h20.13.916,intentional binding task,2024.1.5,None,2024-11-14 19h20.25.146951 +0530,
0.1,1000,unexp,3,9,39,0,173.88272289989982,,173.86876219999976,173.88272289989982,174.8825348999817,174.8825348999817,174.8825348999817,175.90032859996427,space,1.0150734999915585,None,175.9010280999355,176.01569906663306,176.3158942000009,176.3044201999437,176.3044558999827,176.3158942000009,176.3158942000009,176.3158942000009,180.80033070000354,385,1,[4.494130800012499],[4.494137900066562],257325,001,2024-11-14_19h20.13.916,intentional binding task,2024.1.5,None,2024-11-14 19h20.25.146951 +0530,
0.1,400,exp,4,0,40,9,180.81534249999095,,180.80097389989533,180.81534249999095,181.81547389994375,181.81547389994375,181.81547389994375,182.3003227999434,space,0.48015019996091723,None,182.30085499992128,182.41552846663788,182.72638219990768,182.71724639995955,182.71728189999703,182.72638219990768,182.72638219990768,182.72638219990768,184.14981919992715,346,1,[1.430836800020188],[1.4308424000628293],257325,001,2024-11-14_19h20.13.916,intentional binding task,2024.1.5,None,2024-11-14 19h20.25.146951 +0530,
0.7,400,exp,4,1,41,8,184.16537820000667,,184.1504987999797,184.16537820000667,185.16534659999888,185.16534659999888,185.16534659999888,185.91655669989996,space,0.7498585999710485,None,185.9170168999117,186.63176676660467,186.9422726999037,186.92594739992637,186.9259762999136,186.9422726999037,186.9422726999037,186.9422726999037,188.0337003999157,847,1,[1.1025277000153437],[1.1025380999781191],257325,001,2024-11-14_19h20.13.916,intentional binding task,2024.1.5,None,2024-11-14 19h20.25.146951 +0530,
0.4,1000,unexp,4,2,42,4,188.04863799992017,,188.03445549996104,188.04863799992017,189.04858199995942,189.04858199995942,189.04858199995942,189.31663689995185,space,0.2623676999937743,None,189.31734959990717,189.7317685665951,,189.98711109999567,189.9871399999829,189.99871699989308,189.99871699989308,189.99871699989308,192.51688799995463,563,1,[2.528093999950215],[2.5281043999129906],257325,001,2024-11-14_19h20.13.916,intentional binding task,2024.1.5,None,2024-11-14 19h20.25.146951 +0530,
0.7,400,exp,4,3,43,5,192.53191319992766,,192.51785169995856,192.53191319992766,193.53174369991757,193.53174369991757,193.53174369991757,193.84976209991146,space,0.3043513000011444,None,193.85056960000657,194.56499366666347,194.86508059990592,194.85204639995936,194.8520752999466,194.86508059990592,194.86508059990592,194.86508059990592,196.90060829999857,765,1,[2.046948799979873],[2.0469598999479786],257325,001,2024-11-14_19h20.13.916,intentional binding task,2024.1.5,None,2024-11-14 19h20.25.146951 +0530,
0.1,400,exp,4,4,44,6,196.91486339992844,,196.90187659999356,196.91486339992844,197.91478140000254,197.91478140000254,197.91478140000254,198.515881099971,space,0.5933090000180528,None,198.51639269990847,198.6315307666703,,198.88676129991654,198.8867867999943,198.89826970000286,198.89826970000286,198.89826970000286,204.60003849992063,674,1,[5.711725799948908],[5.711735099903308],257325,001,2024-11-14_19h20.13.916,intentional binding task,2024.1.5,None,2024-11-14 19h20.25.146951 +0530,
0.4,1000,unexp,4,5,45,1,204.6150568999583,,204.6007541998988,204.6150568999583,205.61473209992982,205.61473209992982,205.61473209992982,205.76608229998965,space,0.1472574999788776,None,205.76646209997125,206.1809461665728,206.49110079999082,206.47889819997363,206.47892819996923,206.49110079999082,206.49110079999082,206.49110079999082,208.41598049993627,578,1,[1.9354044999927282],[1.9354153000749648],257325,001,2024-11-14_19h20.13.916,intentional binding task,2024.1.5,None,2024-11-14 19h20.25.146951 +0530,
0.1,1000,unexp,4,6,46,0,208.43120069999713,,208.41668269992806,208.43120069999713,209.43118709989358,209.43118709989358,209.43118709989358,209.56541099993046,space,0.1323303000535816,None,209.5658484000014,209.68086346664157,,209.95560469990596,209.95563019998372,209.96464939997531,209.96464939997531,209.96464939997531,212.74961339996662,435,1,[2.792384999920614],[2.792420699959621],257325,001,2024-11-14_19h20.13.916,intentional binding task,2024.1.5,None,2024-11-14 19h20.25.146951 +0530,
0.7,1000,unexp,4,7,47,2,212.7642945999978,,212.75093749992084,212.7642945999978,213.76421239995398,213.76421239995398,213.76421239995398,214.0487104000058,space,0.2805553999496624,None,214.04947819991503,214.76416246657416,215.06413869990502,215.05279349989723,215.05281499994453,215.06413869990502,215.06413869990502,215.06413869990502,218.28268059995025,786,1,[3.228124300017953],[3.228131900075823],257325,001,2024-11-14_19h20.13.916,intentional binding task,2024.1.5,None,2024-11-14 19h20.25.146951 +0530,
0.1,1000,unexp,4,8,48,3,218.2977188999066,,218.2834400999127,218.2977188999066,219.297574599972,219.297574599972,219.297574599972,219.5490743999835,space,0.2442356999963522,None,219.54972889996134,219.663958666559,219.97545709996484,219.96351069991942,219.96355159999803,219.97545709996484,219.97545709996484,219.97545709996484,223.98215139994863,100,1,[4.01628870004788],[4.016300900024362],257325,001,2024-11-14_19h20.13.916,intentional binding task,2024.1.5,None,2024-11-14 19h20.25.146951 +0530,
0.4,400,exp,4,9,49,7,223.99722499994095,,223.98323149990756,223.99722499994095,224.99709659989458,224.99709659989458,224.99709659989458,225.64819129998796,space,0.6488338999915868,None,225.64882539992686,226.06371606659766,226.37647949997336,226.36477029998787,226.3648066999158,226.37647949997336,226.37647949997336,226.37647949997336,229.73211639991496,343,1,[3.3653511999873444],[3.36536159995012],257325,001,2024-11-14_19h20.13.916,intentional binding task,2024.1.5,None,2024-11-14 19h20.25.146951 +0530,
0.7,400,exp,5,0,50,8,229.7469596998999,,229.733287799987,229.7469596998999,230.74697129998822,230.74697129998822,230.74697129998822,231.1481173998909,space,0.3859838000498712,None,231.14884019992314,231.86345166661002,232.1639959999593,232.15311409998685,232.15314700000454,232.1639959999593,232.1639959999593,232.1639959999593,238.81489439995494,244,1,[6.659686600090936],[6.65969830006361],257325,001,2024-11-14_19h20.13.916,intentional binding task,2024.1.5,None,2024-11-14 19h20.25.146951 +0530,
0.4,1000,unexp,5,1,51,4,238.8305486999452,,238.81593889999203,238.8305486999452,239.82992359995842,239.82992359995842,239.82992359995842,311.5952114999527,space,71.75943219999317,None,311.59583849995397,312.010262266562,312.3443106999621,312.3311049999902,312.33113849989604,312.3443106999621,312.3443106999621,312.3443106999621,314.1115184999071,876,1,[1.77857490000315],[1.7785820999415591],257325,001,2024-11-14_19h20.13.916,intentional binding task,2024.1.5,None,2024-11-14 19h20.25.146951 +0530,
0.7,400,exp,5,2,52,5,314.12683069997,,314.11226199998055,314.12683069997,315.126959499903,315.126959499903,315.126959499903,315.6119158999063,space,0.4729677999857813,None,315.6127303999383,316.32705906656724,316.6392262999434,316.6284163999371,316.6284732999047,316.6392262999434,316.6392262999434,316.6392262999434,318.3778547999682,345,1,[1.7469826999586076],[1.7469900998985395],257325,001,2024-11-14_19h20.13.916,intentional binding task,2024.1.5,None,2024-11-14 19h20.25.146951 +0530,
0.7,1000,unexp,5,3,53,2,318.39345579990186,,318.3785498999059,318.39345579990186,319.3768378999084,319.3768378999084,319.39352729998063,320.294645799906,space,0.9014700000407174,None,320.295512599987,321.0099297665913,321.32259429991245,321.31069859990384,321.31075809989125,321.32259429991245,321.32259429991245,321.32259429991245,323.028175799991,348,1,[1.7156288999831304],[1.7156415999634191],257325,001,2024-11-14_19h20.13.916,intentional binding task,2024.1.5,None,2024-11-14 19h20.25.146951 +0530,
0.1,400,exp,5,4,54,9,323.0432452999521,,323.02888969995547,323.0432452999521,324.0434142999584,324.0434142999584,324.0434142999584,324.3279161999235,space,0.2758180000819266,None,324.32876979990397,324.44309756666576,,324.716614899924,324.71664539992344,324.72909939999226,324.72909939999226,324.72909939999226,325.7947622999782,349,1,[1.076405799947679],[1.0764133000047877],257325,001,2024-11-14_19h20.13.916,intentional binding task,2024.1.5,None,2024-11-14 19h20.25.146951 +0530,
0.1,1000,unexp,5,5,55,0,325.8097706999397,,325.79547379992437,325.8097706999397,326.8097482000012,326.8097482000012,326.8097482000012,327.17802629992366,space,0.36137759999837726,None,327.17872359999456,327.29282626667214,327.6058570999885,327.593770199921,327.593801699928,327.6058570999885,327.6058570999885,327.6058570999885,330.7444243999198,358,1,[3.1462405999191105],[3.1462503999937326],257325,001,2024-11-14_19h20.13.916,intentional binding task,2024.1.5,None,2024-11-14 19h20.25.146951 +0530,
0.1,400,exp,5,6,56,6,330.7595861000009,,330.7455959999934,330.7595861000009,331.75960629992187,331.75960629992187,331.75960629992187,332.060875199968,space,0.28431630006525666,None,332.0612851999467,332.1762468666459,332.49099129997194,332.4787662999006,332.4788042999571,332.49099129997194,332.49099129997194,332.49099129997194,336.2607412999496,193,1,[3.780181000009179],[3.780189200071618],257325,001,2024-11-14_19h20.13.916,intentional binding task,2024.1.5,None,2024-11-14 19h20.25.146951 +0530,
0.1,1000,unexp,5,7,57,3,336.27583879989106,,336.2614790999796,336.27583879989106,337.2760464999592,337.2760464999592,337.2760464999592,337.71054050000384,space,0.4312002999940887,None,337.7111907999497,337.8258757666374,338.14288559998386,338.129721299978,338.1297556000063,338.14288559998386,338.14288559998386,338.14288559998386,339.84420049993787,658,1,[1.7126374000217766],[1.7126463999738917],257325,001,2024-11-14_19h20.13.916,intentional binding task,2024.1.5,None,2024-11-14 19h20.25.146951 +0530,
0.4,1000,unexp,5,8,58,1,339.85917619999964,,339.8452627999941,339.85917619999964,340.8592196999816,340.8592196999816,340.8592196999816,341.2939996999921,space,0.4284034000011161,None,341.2950221999781,341.70914066658975,342.0118433999596,341.9999231999973,341.9999960999703,342.0118433999596,342.0118433999596,342.0118433999596,343.09444189991336,749,1,[1.092476399964653],[1.092488499940373],257325,001,2024-11-14_19h20.13.916,intentional binding task,2024.1.5,None,2024-11-14 19h20.25.146951 +0530,
0.4,400,exp,5,9,59,7,343.10916679992806,,343.09568999998737,343.10916679992806,344.10911609989125,344.10911609989125,344.10911609989125,344.3935022999067,space,0.2711278999922797,None,344.39400689990725,344.8088670665786,345.1146506998921,345.0998163999757,345.0998527999036,345.1146506998921,345.1146506998921,345.1146506998921,347.0106392999878,497,1,[1.909059299970977],[1.9090672000311315],257325,001,2024-11-14_19h20.13.916,intentional binding task,2024.1.5,None,2024-11-14 19h20.25.146951 +0530,
0.4,1000,unexp,6,0,60,1,347.02540159993805,,347.01132069993764,347.02540159993805,348.02554929989856,348.02554929989856,348.02554929989856,348.5102460999042,space,0.46783840004354715,None,348.5109590999782,348.9253792665588,349.22939379990567,349.21665729989763,349.2166875998955,349.22939379990567,349.22939379990567,349.22939379990567,351.66001589992084,653,1,[2.441597199998796],[2.441605000058189],257325,001,2024-11-14_19h20.13.916,intentional binding task,2024.1.5,None,2024-11-14 19h20.25.146951 +0530,
0.1,1000,unexp,6,1,61,0,351.6754353999859,,351.6607866999693,351.6754353999859,352.67520669999067,352.67520669999067,352.67520669999067,353.1599059998989,space,0.47500089998357,None,353.16053489991464,353.275281366605,353.58577049989253,353.5737707999069,353.57381549989805,353.58577049989253,353.58577049989253,353.58577049989253,355.52647899999283,356,1,[1.950774100027047],[1.9507817999692634],257325,001,2024-11-14_19h20.13.916,intentional binding task,2024.1.5,None,2024-11-14 19h20.25.146951 +0530,
0.7,400,exp,6,2,62,5,355.5420450998936,,355.52719589998014,355.5420450998936,356.54195829993114,356.54195829993114,356.54195829993114,357.05972399993334,space,0.5090797999873757,None,357.0603485999163,357.7751434666027,,358.02371419989504,358.0237497999333,358.0357408999698,358.0357408999698,358.0357408999698,359.8100888999179,467,1,[1.7844328999053687],[1.7844413999700919],257325,001,2024-11-14_19h20.13.916,intentional binding task,2024.1.5,None,2024-11-14 19h20.25.146951 +0530,
0.4,1000,unexp,6,3,63,4,359.82518239994533,,359.8113389998907,359.82518239994533,360.8248836999992,360.8248836999992,360.8248836999992,362.22599079995416,space,1.3934272000333294,None,362.2266983999871,362.64140946657085,362.95099449995905,362.93649419990834,362.93652629991993,362.95099449995905,362.95099449995905,362.95099449995905,364.36414059996605,365,1,[1.421315300045535],[1.4213282000273466],257325,001,2024-11-14_19h20.13.916,intentional binding task,2024.1.5,None,2024-11-14 19h20.25.146951 +0530,
0.1,400,exp,6,4,64,6,364.3750570999691,,364.3651300999336,364.3750570999691,365.37469299999066,365.37469299999066,365.37469299999066,365.87571419996675,space,0.4875354999676347,None,365.8762961999746,365.99125946656955,366.30813879997004,366.29347229993436,366.29350079991855,366.30813879997004,366.30813879997004,366.30813879997004,368.60985239990987,675,1,[2.3146419000113383],[2.3146502000745386],257325,001,2024-11-14_19h20.13.916,intentional binding task,2024.1.5,None,2024-11-14 19h20.25.146951 +0530,
0.7,1000,unexp,6,5,65,2,368.62449429999106,,368.61054959998,368.62449429999106,369.62466410000343,369.62466410000343,369.62466410000343,370.0259969999315,space,0.39656669995747507,None,370.0267622999381,370.7412334666044,,370.997391999932,370.99742599995807,371.0095974999713,371.0095974999713,371.0095974999713,372.22621619992424,563,1,[1.2266830999869853],[1.2266925999429077],257325,001,2024-11-14_19h20.13.916,intentional binding task,2024.1.5,None,2024-11-14 19h20.25.146951 +0530,
0.4,400,exp,6,6,66,7,372.2413585999748,,372.22733799996786,372.2413585999748,373.2413884999696,373.2413884999696,373.2413884999696,373.7089812000049,space,0.4526026000967249,None,373.70957409997936,374.12438216660325,,374.40754739998374,374.40757869998924,374.4159886999987,374.4159886999987,374.4159886999987,376.5253892999608,523,1,[2.116375399986282],[2.1163840000517666],257325,001,2024-11-14_19h20.13.916,intentional binding task,2024.1.5,None,2024-11-14 19h20.25.146951 +0530,
0.1,1000,unexp,6,7,67,3,376.5409989999607,,376.52608509990387,376.5409989999607,377.5409787999233,377.5409787999233,377.5409787999233,378.32557659992017,space,0.7762445999542251,None,378.3262606000062,378.4407901665584,,378.70828149991576,378.7083160999464,378.7197178999195,378.7197178999195,378.7197178999195,381.04464340000413,457,1,[2.334435199969448],[2.334444100037217],257325,001,2024-11-14_19h20.13.916,intentional binding task,2024.1.5,None,2024-11-14 19h20.25.146951 +0530,
0.1,400,exp,6,8,68,9,381.0577163998969,,381.0452979999827,381.0577163998969,382.0574431999121,382.0574431999121,382.0574431999121,382.52544479991775,space,0.45819559996016324,None,382.52608509990387,382.6405959666629,,382.9054905999219,382.90551919990685,382.91708379995544,382.91708379995544,382.91708379995544,384.8094466999173,635,1,[1.9020939999027178],[1.9021102999104187],257325,001,2024-11-14_19h20.13.916,intentional binding task,2024.1.5,None,2024-11-14 19h20.25.146951 +0530,
0.7,400,exp,6,9,69,8,384.824017399922,,384.8103643999202,384.824017399922,385.8240039999364,385.8240039999364,385.8240039999364,386.1088044999633,space,0.2713221999583766,None,386.1095073999604,386.8240219666079,,387.11042109993286,387.11045319994446,387.12118599994574,387.12118599994574,387.12118599994574,388.6091935998993,354,1,[1.4971264000050724],[1.4971384000964463],257325,001,2024-11-14_19h20.13.916,intentional binding task,2024.1.5,None,2024-11-14 19h20.25.146951 +0530,
0.7,400,exp,7,0,70,5,388.62376669992227,,388.6104039999191,388.62376669992227,389.6237988999346,389.6237988999346,389.6237988999346,390.22513079992495,space,0.5888455000240356,None,390.2258906000061,390.9403085666165,,391.2011149999453,391.20114559994545,391.21005529991817,391.21005529991817,391.21005529991817,392.7921586999437,554,1,[1.587916599935852],[1.5879259000066668],257325,001,2024-11-14_19h20.13.916,intentional binding task,2024.1.5,None,2024-11-14 19h20.25.146951 +0530,
0.4,1000,unexp,7,1,71,1,392.80716569989454,,392.79283900000155,392.80716569989454,393.80709559994284,393.80709559994284,393.80709559994284,394.1414096999215,space,0.3325274999951944,None,394.141995199956,394.55686596659166,,394.8158543999307,394.81588999996893,394.8285593999317,394.8285593999317,394.8285593999317,395.9250300999265,465,1,[1.1072897999547422],[1.1073021999327466],257325,001,2024-11-14_19h20.13.916,intentional binding task,2024.1.5,None,2024-11-14 19h20.25.146951 +0530,
0.7,400,exp,7,2,72,8,395.9403570999857,,395.92615630000364,395.9403570999857,396.9402465999592,396.9402465999592,396.9402465999592,397.25809509993996,space,0.3104789999779314,None,397.25872359995265,397.9735300666109,398.2763858999824,398.26450019993354,398.26452679990325,398.2763858999824,398.2763858999824,398.2763858999824,400.3585762999719,353,1,[2.0922723000403494],[2.0922821999993175],257325,001,2024-11-14_19h20.13.916,intentional binding task,2024.1.5,None,2024-11-14 19h20.25.146951 +0530,
0.7,1000,unexp,7,3,73,2,400.37329509994015,,400.3592401999049,400.37329509994015,401.3732594999019,401.3732594999019,401.3732594999019,401.7579231999116,space,0.374805000028573,None,401.758700999897,402.47324096662146,402.7833769998979,402.77196129993536,402.77199549996294,402.7833769998979,402.7833769998979,402.7833769998979,405.19220789999235,543,1,[2.4182253000326455],[2.4182378000114113],257325,001,2024-11-14_19h20.13.916,intentional binding task,2024.1.5,None,2024-11-14 19h20.25.146951 +0530,
0.4,1000,unexp,7,4,74,4,405.20696459989995,,405.19342829997186,405.20696459989995,406.2066047999542,406.2066047999542,406.2066047999542,407.4244507999392,space,1.202751100063324,None,407.4249421999557,407.83960416663126,408.1411143000005,408.12778320000507,408.12781330000143,408.1411143000005,408.1411143000005,408.1411143000005,410.54101369995624,464,1,[2.4113391001010314],[2.411345500033349],257325,001,2024-11-14_19h20.13.916,intentional binding task,2024.1.5,None,2024-11-14 19h20.25.146951 +0530,
0.4,400,exp,7,5,75,7,410.5564351999201,,410.5420887999935,410.5564351999201,411.5564869999653,411.5564869999653,411.5564869999653,412.39093949995004,space,0.8218533999752253,None,412.39161349995993,412.80621066660774,413.10640289995354,413.09229739999864,413.0923370999517,413.10640289995354,413.10640289995354,413.10640289995354,415.1915824000025,563,1,[2.097231199964881],[2.0972527000121772],257325,001,2024-11-14_19h20.13.916,intentional binding task,2024.1.5,None,2024-11-14 19h20.25.146951 +0530,
0.1,400,exp,7,6,76,9,415.2062721999828,,415.19272409996483,415.2062721999828,416.20619699999224,416.20619699999224,416.20619699999224,416.6075677999761,space,0.3963567999890074,None,416.6083139999537,416.72273176658587,417.0566480999114,417.0430119999219,417.0430737999268,417.0566480999114,417.0566480999114,417.0566480999114,419.1908116999548,434,1,[2.1460922999540344],[2.146100700017996],257325,001,2024-11-14_19h20.13.916,intentional binding task,2024.1.5,None,2024-11-14 19h20.25.146951 +0530,
0.1,400,exp,7,7,77,6,419.20604540000204,,419.19150129996706,419.20604540000204,420.2060933999019,420.2060933999019,420.2060933999019,421.9240194999147,space,1.7143464999971911,None,421.9248919999227,422.0391860666607,422.3407305999426,422.3286685999483,422.32869839994237,422.3407305999426,422.3407305999426,422.3407305999426,424.55768779991195,633,1,[2.227251600008458],[2.2272624999750406],257325,001,2024-11-14_19h20.13.916,intentional binding task,2024.1.5,None,2024-11-14 19h20.25.146951 +0530,
0.1,1000,unexp,7,8,78,3,424.57245539990254,,424.5584263999481,424.57245539990254,425.57255759998225,425.57255759998225,425.57255759998225,426.8405383999925,space,1.2528388000791892,None,426.84094059991185,426.9555727666632,427.25861159991473,427.24530479998793,427.2453375000041,427.25861159991473,427.25861159991473,427.25861159991473,430.407779000001,456,1,[3.160351700033061],[3.1603769999928772],257325,001,2024-11-14_19h20.13.916,intentional binding task,2024.1.5,None,2024-11-14 19h20.25.146951 +0530,
0.1,1000,unexp,7,9,79,0,430.42239849991165,,430.4090534999268,430.42239849991165,431.4222880000016,431.4222880000016,431.4222880000016,432.07358079997357,space,0.6476457000244409,None,432.0742662999546,432.1887780666041,,432.46746709989384,432.4674989999039,432.4758674999466,432.4758674999466,432.4758674999466,434.22399659990333,245,1,[1.7550035999156535],[1.7550151000032201],257325,001,2024-11-14_19h20.13.916,intentional binding task,2024.1.5,None,2024-11-14 19h20.25.146951 +0530,
0.1,400,exp,8,0,80,9,434.2386172999395,,434.22470699995756,434.2386172999395,435.2385596999666,435.2385596999666,435.2385596999666,435.5066698999144,space,0.25549850007519126,None,435.50742559996434,435.6221735666661,435.92882679996546,435.9202871999005,435.92031909991056,435.92882679996546,435.92882679996546,435.92882679996546,439.2577053999994,365,1,[3.335678100003861],[3.3356930000009015],257325,001,2024-11-14_19h20.13.916,intentional binding task,2024.1.5,None,2024-11-14 19h20.25.146951 +0530,
0.1,1000,unexp,8,1,81,0,439.271916699945,,439.2591459999094,439.271916699945,440.2720363999251,440.2720363999251,440.2720363999251,440.62344829994254,space,0.33602639997843653,None,440.624237199896,440.7384006665709,441.05139579996467,441.0429200999206,441.04295059992,441.05139579996467,441.05139579996467,441.05139579996467,444.12360459996853,651,1,[3.079145999974571],[3.079155800049193],257325,001,2024-11-14_19h20.13.916,intentional binding task,2024.1.5,None,2024-11-14 19h20.25.146951 +0530,
0.4,1000,unexp,8,2,82,4,444.13820529996883,,444.12436569994316,444.13820529996883,445.13821349991485,445.13821349991485,445.13821349991485,445.70645029994193,space,0.5626288999337703,None,445.7071450999938,446.1214607665936,446.4372091999976,446.4240084999474,446.4240562999621,446.4372091999976,446.4372091999976,446.4372091999976,448.7564698999049,457,1,[2.3303626000415534],[2.330369699979201],257325,001,2024-11-14_19h20.13.916,intentional binding task,2024.1.5,None,2024-11-14 19h20.25.146951 +0530,
0.7,1000,unexp,8,3,83,2,448.77161589998286,,448.75762559997384,448.77161589998286,449.77151449990924,449.77151449990924,449.77151449990924,450.4727240999928,space,0.6849720999598503,None,450.4734750998905,451.18807226658487,451.4997119999025,451.4879832000006,451.4880152998958,451.4997119999025,451.4997119999025,451.4997119999025,454.03965479996987,536,1,[2.549854199984111],[2.5498672000830993],257325,001,2024-11-14_19h20.13.916,intentional binding task,2024.1.5,None,2024-11-14 19h20.25.146951 +0530,
0.7,400,exp,8,4,84,8,454.05484649993014,,454.0407284999965,454.05484649993014,455.05456079996657,455.05456079996657,455.05456079996657,455.3883745999774,space,0.3267797000007704,None,455.3888059000019,456.10427886661296,456.4172227999661,456.4089844999835,456.40901379997376,456.4172227999661,456.4172227999661,456.4172227999661,457.88981009996496,748,1,[1.4791233000578359],[1.4791376000503078],257325,001,2024-11-14_19h20.13.916,intentional binding task,2024.1.5,None,2024-11-14 19h20.25.146951 +0530,
0.4,1000,unexp,8,5,85,1,457.904369099997,,457.8909845999442,457.904369099997,458.90437739994377,458.90437739994377,458.90437739994377,459.3720021999907,space,0.4613680000184104,None,459.37240899994504,459.78748846665644,460.10453409992624,460.0953667999711,460.0954135999782,460.10453409992624,460.10453409992624,460.10453409992624,461.3890164999757,387,1,[1.291880099917762],[1.2918911000015214],257325,001,2024-11-14_19h20.13.916,intentional binding task,2024.1.5,None,2024-11-14 19h20.25.146951 +0530,
0.7,400,exp,8,6,86,5,461.4045870999107,,461.3903938999865,461.4045870999107,462.40427029994316,462.40427029994316,462.40427029994316,462.7218261999078,space,0.3108969999011606,None,462.72224709996954,463.4374838666447,463.76576349989045,463.7534071999835,463.75344739994034,463.76576349989045,463.76576349989045,463.76576349989045,465.6221823999658,657,1,[1.8667102999752387],[1.8667216999456286],257325,001,2024-11-14_19h20.13.916,intentional binding task,2024.1.5,None,2024-11-14 19h20.25.146951 +0530,
0.1,1000,unexp,8,7,87,3,465.6375799999805,,465.6229117999319,465.6375799999805,466.6220334999962,466.6220334999962,466.6260509999702,466.8883266999619,space,0.2572520000394434,None,466.8889320999151,467.00385506666885,,467.2790235999273,467.27905219991226,467.2904029999627,467.2904029999627,467.2904029999627,469.18898929993156,384,1,[1.9081771000055596],[1.9081881999736652],257325,001,2024-11-14_19h20.13.916,intentional binding task,2024.1.5,None,2024-11-14 19h20.25.146951 +0530,
0.1,400,exp,8,8,88,6,469.2037815999938,,469.1900228000013,469.2037815999938,470.20396849990357,470.20396849990357,470.20396849990357,471.80511119996663,space,1.5862037999322638,None,471.80581459996756,471.92049726663777,,472.19859639997594,472.1986311998917,472.2080842999276,472.2080842999276,472.2080842999276,474.4723061999539,478,1,[2.271859999978915],[2.271869199932553],257325,001,2024-11-14_19h20.13.916,intentional binding task,2024.1.5,None,2024-11-14 19h20.25.146951 +0530,
0.4,400,exp,8,9,89,7,474.48735789989587,,474.47351839998737,474.48735789989587,475.487084299908,475.487084299908,475.487084299908,475.80467179999687,space,0.3140353000489995,None,475.80528009997215,476.22021366662034,476.53611649991944,476.52411009999923,476.52414629992563,476.53611649991944,476.53611649991944,476.53611649991944,478.2722659999272,465,1,[1.7462808000855148],[1.7462900000391528],257325,001,2024-11-14_19h20.13.916,intentional binding task,2024.1.5,None,2024-11-14 19h20.25.146951 +0530,
0.4,1000,unexp,9,0,90,1,478.28710949991364,,478.2729548999341,478.28710949991364,479.28701609990094,479.28701609990094,479.28701609990094,479.62129409995396,space,0.32334670005366206,None,479.62194119999185,480.0368267666238,,480.2856136999326,480.28564249991905,480.2970527999569,480.2970527999569,480.2970527999569,482.1714762999909,347,1,[1.8841016000369564],[1.8841106001054868],257325,001,2024-11-14_19h20.13.916,intentional binding task,2024.1.5,None,2024-11-14 19h20.25.146951 +0530,
0.1,400,exp,9,1,91,6,482.1869350000052,,482.17252219992224,482.1869350000052,483.18681969994213,483.18681969994213,483.18681969994213,484.75477080000564,space,1.563200099975802,None,484.75553329999093,484.8699735665616,,485.12587359989993,485.1259152999846,485.13842719991226,485.13842719991226,485.13842719991226,486.7544741999591,834,1,[1.6266255000373349],[1.6266364000039175],257325,001,2024-11-14_19h20.13.916,intentional binding task,2024.1.5,None,2024-11-14 19h20.25.146951 +0530,
0.7,400,exp,9,2,92,5,486.769862899906,,486.7556254999945,486.769862899906,487.7699948999798,487.7699948999798,487.7699948999798,489.604086099891,space,1.819861099938862,None,489.6045297998935,490.31957386661475,490.65928599995095,490.64751649997197,490.6475495999912,490.65928599995095,490.65928599995095,490.65928599995095,493.67085929994937,384,1,[3.021579800057225],[3.021588600007817],257325,001,2024-11-14_19h20.13.916,intentional binding task,2024.1.5,None,2024-11-14 19h20.25.146951 +0530,
0.1,400,exp,9,3,93,9,493.6862958999118,,493.67159979999997,493.6862958999118,494.6868166999193,494.6868166999193,494.6868166999193,495.1372847999446,space,0.434867599979043,None,495.13789989997167,495.2528086666173,495.56001689995173,495.5515267999144,495.5515693000052,495.56001689995173,495.56001689995173,495.56001689995173,497.35457259998657,384,1,[1.8013376999879256],[1.8013519999803975],257325,001,2024-11-14_19h20.13.916,intentional binding task,2024.1.5,None,2024-11-14 19h20.25.146951 +0530,
0.7,400,exp,9,4,94,8,497.3694848999148,,497.3552373999264,497.3694848999148,498.3693640999263,498.3693640999263,498.3693640999263,499.47036479995586,space,1.0959517000010237,None,499.4708153998945,500.1699968666692,500.4779337999644,500.469778599916,500.469799399958,500.4779337999644,500.4779337999644,500.4779337999644,502.0209510999266,487,1,[1.5495767999673262],[1.5495862999232486],257325,001,2024-11-14_19h20.13.916,intentional binding task,2024.1.5,None,2024-11-14 19h20.25.146951 +0530,
0.1,1000,unexp,9,5,95,3,502.0361776999198,,502.02208319993224,502.0361776999198,503.036060799961,503.036060799961,503.036060799961,504.18697899999097,space,1.137810799991712,None,504.1876857999014,504.3024520666261,,504.54311869991943,504.5431533999508,504.5548134999117,504.5548134999117,504.5548134999117,506.05421669990756,938,1,[1.5091071999631822],[1.5091161000309512],257325,001,2024-11-14_19h20.13.916,intentional binding task,2024.1.5,None,2024-11-14 19h20.25.146951 +0530,
0.1,1000,unexp,9,6,96,0,506.06902669998817,,506.0550716998987,506.06902669998817,507.06907389999833,507.06907389999833,507.06907389999833,507.853397400002,space,0.7681127999676391,None,507.8537921999814,507.9691284666226,508.2784425999271,508.26980069989804,508.26982109993696,508.2784425999271,508.2784425999271,508.2784425999271,509.7704765999224,384,1,[1.4992589999455959],[1.499269500025548],257325,001,2024-11-14_19h20.13.916,intentional binding task,2024.1.5,None,2024-11-14 19h20.25.146951 +0530,
0.7,1000,unexp,9,7,97,2,509.7860032999888,,509.77125549991615,509.7860032999888,510.78575139993336,510.78575139993336,510.78575139993336,511.05357379990164,space,0.2519764000317082,None,511.0540284999879,511.75372176658516,,512.0417186999694,512.0417368999915,512.0522263000021,512.0522263000021,512.0522263000021,516.6871131999651,123,1,[4.6440676000202075],[4.644075700081885],257325,001,2024-11-14_19h20.13.916,intentional binding task,2024.1.5,None,2024-11-14 19h20.25.146951 +0530,
0.4,1000,unexp,9,8,98,4,516.7021165000042,,516.6877671999391,516.7021165000042,517.7022003999446,517.7022003999446,517.7022003999446,518.2362007999327,space,0.5250982000725344,None,518.2365688999416,518.6519127665708,518.962698899908,518.9508474000031,518.950887999963,518.962698899908,518.962698899908,518.962698899908,520.7533223999199,238,1,[1.8003364999312907],[1.8003472000127658],257325,001,2024-11-14_19h20.13.916,intentional binding task,2024.1.5,None,2024-11-14 19h20.25.146951 +0530,
0.4,400,exp,9,9,99,7,520.768419799977,,520.7544208999025,520.768419799977,521.7683427999727,521.7683427999727,521.7683427999727,522.8364763999125,space,1.05754710000474,None,522.8373508999357,523.2516820666535,,523.5001720999135,523.5002021999098,523.5096662999131,523.5096662999131,523.5096662999131,524.820132899913,182,1,[1.3183874000096694],[1.3183989999815822],257325,001,2024-11-14_19h20.13.916,intentional binding task,2024.1.5,None,2024-11-14 19h20.25.146951 +0530,
0.7,1000,unexp,10,0,100,2,524.8350648999913,,524.8208318999968,524.8350648999913,525.8352606999688,525.8352606999688,525.8352606999688,526.5204284999054,space,0.6838419999694452,None,526.521104699932,527.234788566657,527.5353854999412,527.5240802000044,527.5241060999688,527.5353854999412,527.5353854999412,527.5353854999412,529.7693224999821,324,1,[2.2437587999738753],[2.243766500032507],257325,001,2024-11-14_19h20.13.916,intentional binding task,2024.1.5,None,2024-11-14 19h20.25.146951 +0530,
0.4,400,exp,10,1,101,7,529.7849492999958,,529.769968599896,529.7849492999958,530.7849099999294,530.7849099999294,530.7849099999294,533.2689213999547,space,2.481377899996005,None,533.2693383999867,533.6688109666031,533.9832702999702,533.971527799964,533.9715651998995,533.9832702999702,533.9832702999702,533.9832702999702,535.4528108999366,128,1,[1.4793258999707177],[1.4793328000232577],257325,001,2024-11-14_19h20.13.916,intentional binding task,2024.1.5,None,2024-11-14 19h20.25.146951 +0530,
0.1,400,exp,10,2,102,6,535.4679029999534,,535.4534557999577,535.4679029999534,536.4684371999465,536.4684371999465,536.4684371999465,539.2371380999684,space,2.7598245999542996,None,539.2382611999055,539.3516434665692,539.6653111999622,539.6509926998988,539.6510607999517,539.6653111999622,539.6653111999622,539.6653111999622,542.0025247999001,213,1,[2.3491319000022486],[2.3491401000646874],257325,001,2024-11-14_19h20.13.916,intentional binding task,2024.1.5,None,2024-11-14 19h20.25.146951 +0530,
0.1,1000,unexp,10,3,103,3,542.0177510000067,,542.003280099947,542.0177510000067,543.0181408999488,543.0181408999488,543.0181408999488,546.1704352999805,space,3.1371406000107527,None,546.1721425999422,546.2844815665778,546.6045710999751,546.5900754999602,546.5901698999805,546.6045710999751,546.6045710999751,546.6045710999751,550.5359000999015,213,1,[3.9429858000949025],[3.9429952000500634],257325,001,2024-11-14_19h20.13.916,intentional binding task,2024.1.5,None,2024-11-14 19h20.25.146951 +0530,
0.4,1000,unexp,10,4,104,4,550.5510555999354,,550.5365976999747,550.5510555999354,551.5507362999488,551.5507362999488,551.5507362999488,552.9878456000006,space,1.4329103999771178,None,552.9890396998962,553.4013490665859,553.7144317999482,553.7006864999421,553.7007475999417,553.7144317999482,553.7144317999482,553.7144317999482,555.052064599935,138,1,[1.3486786999274045],[1.3486851999768987],257325,001,2024-11-14_19h20.13.916,intentional binding task,2024.1.5,None,2024-11-14 19h20.25.146951 +0530,
0.7,400,exp,10,5,105,5,555.0673255999573,,555.0528092999011,555.0673255999573,556.067122999928,556.067122999928,556.067122999928,556.6544706999557,space,0.5841113000642508,None,556.65552749997,557.367343966562,557.6738887999672,557.6602933999384,557.6603423999622,557.6738887999672,557.6738887999672,557.6738887999672,559.634922199999,463,1,[1.972226000041701],[1.9722321999724954],257325,001,2024-11-14_19h20.13.916,intentional binding task,2024.1.5,None,2024-11-14 19h20.25.146951 +0530,
0.1,400,exp,10,6,106,9,559.6505638998933,,559.6356839999789,559.6505638998933,560.6509821999352,560.6509821999352,560.6509821999352,561.2689040999394,space,0.6019978999393061,None,561.2698676999426,561.3838720665701,561.6931286999024,561.6803232999519,561.6803711999673,561.6931286999024,561.6931286999024,561.6931286999024,563.0015759998932,238,1,[1.3190783999161795],[1.3190848999656737],257325,001,2024-11-14_19h20.13.916,intentional binding task,2024.1.5,None,2024-11-14 19h20.25.146951 +0530,
0.7,400,exp,10,7,107,8,563.0168711999431,,563.0022971999133,563.0168711999431,564.0172356999246,564.0172356999246,564.0172356999246,564.3859393999446,space,0.35913989995606244,None,564.3871142999269,565.1000775666364,565.4140455999877,565.4005317999981,565.4005832999246,565.4140455999877,565.4140455999877,565.4140455999877,566.6680538998917,182,1,[1.265101799974218],[1.2651130999438465],257325,001,2024-11-14_19h20.13.916,intentional binding task,2024.1.5,None,2024-11-14 19h20.25.146951 +0530,
0.4,1000,unexp,10,8,108,1,566.683481499902,,566.6691656999756,566.683481499902,567.6834537999239,567.6834537999239,567.6834537999239,567.7845923999557,space,0.0957242000149563,None,567.7850346999476,568.2003420666481,568.5127631999785,568.5005710999249,568.5006123000057,568.5127631999785,568.5127631999785,568.5127631999785,570.3846392999403,372,1,[1.8820142999757081],[1.8820224000373855],257325,001,2024-11-14_19h20.13.916,intentional binding task,2024.1.5,None,2024-11-14 19h20.25.146951 +0530,
0.1,1000,unexp,10,9,109,0,570.3997699999018,,570.3853779999772,570.3997699999018,571.4000627999194,571.4000627999194,571.4000627999194,571.9841595999897,space,0.5681654999498278,None,571.9845256999834,572.0998474666305,572.4080320999492,572.3998197999317,572.3998432999942,572.4080320999492,572.4080320999492,572.4080320999492,574.3679459999548,372,1,[1.9667676000390202],[1.9667770999949425],257325,001,2024-11-14_19h20.13.916,intentional binding task,2024.1.5,None,2024-11-14 19h20.25.146951 +0530,
0.4,1000,unexp,11,0,110,1,574.3831710999366,,574.3689335999079,574.3831710999366,575.3831260999432,575.3831260999432,575.3831260999432,575.6675718999468,space,0.2828826999757439,None,575.6680039999774,576.0827428666564,576.3878228999674,576.3752947999164,576.3753301999532,576.3878228999674,576.3878228999674,576.3878228999674,578.5009376999224,264,1,[2.1238223999971524],[2.1238326999591663],257325,001,2024-11-14_19h20.13.916,intentional binding task,2024.1.5,None,2024-11-14 19h20.25.146951 +0530,
0.1,1000,unexp,11,1,111,0,578.5161677999422,,578.5021773999324,578.5161677999422,579.5161487999139,579.5161487999139,579.5161487999139,580.4014567999402,space,0.8821997999912128,None,580.4021070000017,580.5160783666108,580.8340649999445,580.821192799951,580.8212730999803,580.8340649999445,580.8340649999445,580.8340649999445,582.6676639999496,438,1,[1.844517800025642],[1.8445241999579594],257325,001,2024-11-14_19h20.13.916,intentional binding task,2024.1.5,None,2024-11-14 19h20.25.146951 +0530,
0.4,1000,unexp,11,2,112,4,582.6829370999476,,582.6683694999665,582.6829370999476,583.6828162999591,583.6828162999591,583.6828162999591,584.3004555999069,space,0.6033961999928579,None,584.301065199892,584.7160403666242,585.0180803999538,585.0057142999722,585.0057425999548,585.0180803999538,585.0180803999538,585.0180803999538,589.150748499902,213,1,[4.143154199933633],[4.143163200002164],257325,001,2024-11-14_19h20.13.916,intentional binding task,2024.1.5,None,2024-11-14 19h20.25.146951 +0530,
0.1,1000,unexp,11,3,113,3,589.1655941999052,,589.1514016999863,589.1655941999052,590.1656523999991,590.1656523999991,590.1656523999991,591.3672155999811,space,1.200266300002113,None,591.3676089999499,591.4822073665603,591.7855321998941,591.774524499895,591.7745500999736,591.7855321998941,591.7855321998941,591.7855321998941,595.3842799999984,124,1,[3.6080796999158338],[3.608090900001116],257325,001,2024-11-14_19h20.13.916,intentional binding task,2024.1.5,None,2024-11-14 19h20.25.146951 +0530,
0.7,400,exp,11,4,114,8,595.399034999893,,595.3853726999369,595.399034999893,596.3990697999252,596.3990697999252,596.3990697999252,596.6833974999608,space,0.2735080999555066,None,596.6840127999894,597.3987958665859,597.701052499935,597.689544999972,597.6895747999661,597.701052499935,597.701052499935,597.701052499935,599.9498299999395,243,1,[2.2586025999626145],[2.2586115000303835],257325,001,2024-11-14_19h20.13.916,intentional binding task,2024.1.5,None,2024-11-14 19h20.25.146951 +0530,
0.1,400,exp,11,5,115,9,599.9652107999427,,599.9505328999367,599.9652107999427,600.9650325999828,600.9650325999828,600.9650325999828,601.5999220999656,space,0.6313001000089571,None,601.6005468999501,601.7152490666524,602.0242001999868,602.0118515999056,602.0118861999363,602.0242001999868,602.0242001999868,602.0242001999868,604.2338834999828,214,1,[2.220070199924521],[2.2200841999147087],257325,001,2024-11-14_19h20.13.916,intentional binding task,2024.1.5,None,2024-11-14 19h20.25.146951 +0530,
0.7,400,exp,11,6,116,5,604.2485679999227,,604.2349641999463,604.2485679999227,605.2487987999339,605.2487987999339,605.2487987999339,605.4832666999428,space,0.22464190004393458,None,605.4838506999658,606.1984124666235,,606.4435285999207,606.4435656999703,606.4559621999506,606.4559621999506,606.4559621999506,607.7164162999252,436,1,[1.2709536000620574],[1.2709622000111267],257325,001,2024-11-14_19h20.13.916,intentional binding task,2024.1.5,None,2024-11-14 19h20.25.146951 +0530,
0.7,1000,unexp,11,7,117,2,607.731834199978,,607.7175700999796,607.731834199978,608.7355341999792,608.7355341999792,608.7355341999792,609.2326635000063,space,0.48925550002604723,None,609.2331068000058,609.9485708666655,,610.2341632999014,610.2342017999617,610.2454541999614,610.2454541999614,610.2454541999614,614.999193299911,472,1,[4.763374999980442],[4.763385399943218],257325,001,2024-11-14_19h20.13.916,intentional binding task,2024.1.5,None,2024-11-14 19h20.25.146951 +0530,
0.1,400,exp,11,8,118,6,615.014551899978,,614.9999794999603,615.014551899978,616.0145939999493,616.0145939999493,616.0145939999493,616.3153714999789,space,0.2839671999681741,None,616.3158092999365,616.4311772665862,,616.6837593999226,616.6837926999433,616.6953655999387,616.6953655999387,616.6953655999387,618.0998017999809,476,1,[1.4143611999461427],[1.4143678999971598],257325,001,2024-11-14_19h20.13.916,intentional binding task,2024.1.5,None,2024-11-14 19h20.25.146951 +0530,
0.4,400,exp,11,9,119,7,618.1146341999993,,618.1004882999696,618.1146341999993,619.1144419999328,619.1144419999328,619.1144419999328,619.2658187999623,space,None,None,619.2664177999832,619.681038066574,619.995117799961,619.9836880998919,619.9837202999042,619.995117799961,619.995117799961,619.995117799961,623.7661612998927,376,1,[3.78061290003825],[3.7806232000002638],257325,001,2024-11-14_19h20.13.916,intentional binding task,2024.1.5,None,2024-11-14 19h20.25.146951 +0530,
0.4,400,exp,12,0,120,7,623.7812067999039,,623.7668368999148,623.7812067999039,624.7810620999662,624.7810620999662,624.7810620999662,625.5155910999747,space,0.7293337000301108,None,625.5159414999653,625.9308380665645,,626.2065603999654,626.2065908999648,626.2181462999433,626.2181462999433,626.2181462999433,627.5492476999061,327,1,[1.3409515999956056],[1.3409594999393448],257325,001,2024-11-14_19h20.13.916,intentional binding task,2024.1.5,None,2024-11-14 19h20.25.146951 +0530,
0.1,1000,unexp,12,1,121,3,627.564142899937,,627.5499151999829,627.564142899937,628.5640462998999,628.5640462998999,628.5640462998999,629.0322904000059,space,0.4589860000414774,None,629.0327388999285,629.1474038665804,629.4692727999063,629.4605114998994,629.4605418998981,629.4692727999063,629.4692727999063,629.4692727999063,633.1818800999317,753,1,[3.7198381000198424],[3.719845399959013],257325,001,2024-11-14_19h20.13.916,intentional binding task,2024.1.5,None,2024-11-14 19h20.25.146951 +0530,
0.7,400,exp,12,2,122,8,633.1975220999448,,633.1825123999733,633.1975220999448,634.1979146999074,634.1979146999074,634.1979146999074,637.1148975999095,space,2.906298500020057,None,637.1152964999201,637.8301010665639,,638.0894208999816,638.0894411999034,638.0979568999028,638.0979568999028,638.0979568999028,640.6159394999268,795,1,[2.525153199909255],[2.5251624999800697],257325,001,2024-11-14_19h20.13.916,intentional binding task,2024.1.5,None,2024-11-14 19h20.25.146951 +0530,
0.1,400,exp,12,3,123,6,640.6302274999907,,640.6170608999673,640.6302274999907,641.6308766999282,641.6308766999282,641.6308766999282,641.9311832999811,space,0.2989269000245258,None,641.9315339999739,642.0472445666712,642.372904399992,642.3640251999022,642.3640521999914,642.372904399992,642.372904399992,642.372904399992,643.7485212999163,487,1,[1.3830057000741363],[1.3830156000331044],257325,001,2024-11-14_19h20.13.916,intentional binding task,2024.1.5,None,2024-11-14 19h20.25.146951 +0530,
0.7,400,exp,12,4,124,5,643.7637287999969,,643.7493053999497,643.7637287999969,644.7635252999607,644.7635252999607,644.7635252999607,645.3148983999854,space,0.5435310000320897,None,645.3152600999456,646.0300815666017,646.3379600999178,646.3297933998983,646.3298130999319,646.3379600999178,646.3379600999178,646.3379600999178,650.914911699947,847,1,[4.58379100007005],[4.583798100007698],257325,001,2024-11-14_19h20.13.916,intentional binding task,2024.1.5,None,2024-11-14 19h20.25.146951 +0530,
0.4,1000,unexp,12,5,125,1,650.9300552000059,,650.9156188999768,650.9300552000059,651.929999899934,651.929999899934,651.929999899934,652.2310429998906,space,0.2969936999725178,None,652.2314215999795,652.6467774665837,652.9536484999117,652.9403398999711,652.9404165999731,652.9536484999117,652.9536484999117,652.9536484999117,654.8310786999064,475,1,[1.8887963999295607],[1.8888033999828622],257325,001,2024-11-14_19h20.13.916,intentional binding task,2024.1.5,None,2024-11-14 19h20.25.146951 +0530,
0.4,1000,unexp,12,6,126,4,654.8464239999885,,654.8317464999855,654.8464239999885,655.8465792998904,655.8465792998904,655.8465792998904,656.1478771999246,space,0.28885000001173466,None,656.1483486999059,656.5641707665675,656.8798434999771,656.8633543999167,656.8633741999511,656.8798434999771,656.8798434999771,656.8798434999771,658.4808004999068,374,1,[1.6160777000477538],[1.6160854999907315],257325,001,2024-11-14_19h20.13.916,intentional binding task,2024.1.5,None,2024-11-14 19h20.25.146951 +0530,
0.1,1000,unexp,12,7,127,0,658.4962181999581,,658.4814621999394,658.4962181999581,659.4965616998961,659.4965616998961,659.4965616998961,660.0137893999927,space,0.5129638999933377,None,660.0141469999216,660.1295377666286,660.4374671999831,660.4293256999226,660.4293452999555,660.4374671999831,660.4374671999831,660.4374671999831,662.0645459999796,763,1,[1.6338787999702618],[1.6338858000235632],257325,001,2024-11-14_19h20.13.916,intentional binding task,2024.1.5,None,2024-11-14 19h20.25.146951 +0530,
0.7,1000,unexp,12,8,128,2,662.0797984999372,,662.0652226998936,662.0797984999372,663.080098999897,663.080098999897,663.080098999897,663.5849509999389,space,0.502013299963437,None,663.5857912999345,664.2968951665719,664.6040289999219,664.5905107998988,664.5905703000026,664.6040289999219,664.6040289999219,664.6040289999219,667.5472410999937,843,1,[2.9545905999839306],[2.954597400035709],257325,001,2024-11-14_19h20.13.916,intentional binding task,2024.1.5,None,2024-11-14 19h20.25.146951 +0530,
0.1,400,exp,12,9,129,9,667.5625421999721,,667.5479792999104,667.5625421999721,668.5630306999665,668.5630306999665,668.5630306999665,668.6821310999803,space,0.10817010002210736,None,668.6831602999009,668.7965265665591,669.1198809999041,669.106004799949,669.1060441998998,669.1198809999041,669.1198809999041,669.1198809999041,672.1976027999772,847,1,[3.0896399000193924],[3.0896475000772625],257325,001,2024-11-14_19h20.13.916,intentional binding task,2024.1.5,None,2024-11-14 19h20.25.146951 +0530,
0.4,400,exp,13,0,130,7,672.2124464999652,,672.1984315000009,672.2124464999652,673.2132884999737,673.2132884999737,673.2132884999737,674.3318847999908,space,1.1102857000660151,None,674.3327937999275,674.7462404666624,675.0533770999173,675.0406426999252,675.0406840998912,675.0533770999173,675.0533770999173,675.0533770999173,676.9140253999503,654,1,[1.8712193000828847],[1.8712280000327155],257325,001,2024-11-14_19h20.13.916,intentional binding task,2024.1.5,None,2024-11-14 19h20.25.146951 +0530,
0.1,1000,unexp,13,1,131,0,676.9288780000061,,676.9147161999717,676.9288780000061,677.9295615999727,677.9295615999727,677.9295615999727,679.131410599919,space,1.1944291000254452,None,679.1320749999722,679.2335533665648,,679.530743899988,679.5308162999572,679.5518193999305,679.5518193999305,679.5518193999305,682.7629455999704,384,1,[3.2286146000260487],[3.228622000082396],257325,001,2024-11-14_19h20.13.916,intentional binding task,2024.1.5,None,2024-11-14 19h20.25.146951 +0530,
0.7,400,exp,13,2,132,5,682.7788505998906,,682.7636190999765,682.7788505998906,683.7623836999992,683.7623836999992,683.7792163999984,683.9148248999845,space,0.14528479997534305,None,683.915755199967,684.6290172666234,684.9458389999345,684.9308294999646,684.9308977999026,684.9458389999345,684.9458389999345,684.9458389999345,688.863073799992,918,1,[3.9294586998876184],[3.9294668999500573],257325,001,2024-11-14_19h20.13.916,intentional binding task,2024.1.5,None,2024-11-14 19h20.25.146951 +0530,
0.1,400,exp,13,3,133,6,688.8785211999202,,688.863746899995,688.8785211999202,689.8784662999678,689.8784662999678,689.8784662999678,691.465071399929,space,1.577832099981606,None,691.4659948999761,691.5786979665902,691.8873727999162,691.8794195998926,691.8794408999383,691.8873727999162,691.8873727999162,691.8873727999162,693.6797307999805,384,1,[1.7989427000284195],[1.7989509999752045],257325,001,2024-11-14_19h20.13.916,intentional binding task,2024.1.5,None,2024-11-14 19h20.25.146951 +0530,
0.1,400,exp,13,4,134,9,693.6947040999075,,693.6804422999267,693.6947040999075,694.6953946999274,694.6953946999274,694.6953946999274,694.9794846998993,space,0.2686914000660181,None,694.9799452999141,695.0948403665718,695.4059513999382,695.3897554998985,695.3898017999018,695.4059513999382,695.4059513999382,695.4059513999382,697.0958692999557,473,1,[1.7037612999556586],[1.7037669999990612],257325,001,2024-11-14_19h20.13.916,intentional binding task,2024.1.5,None,2024-11-14 19h20.25.146951 +0530,
0.1,1000,unexp,13,5,135,3,697.1112246999983,,697.0965543999337,697.1112246999983,698.1115387999453,698.1115387999453,698.1115387999453,698.5788214999484,space,0.4580981000326574,None,698.5791668999009,698.695738066632,699.0084800999612,698.9945573000005,698.9946040998911,699.0084800999612,699.0084800999612,699.0084800999612,700.8631362000015,138,1,[1.866175900097005],[1.866183300036937],257325,001,2024-11-14_19h20.13.916,intentional binding task,2024.1.5,None,2024-11-14 19h20.25.146951 +0530,
0.7,1000,unexp,13,6,136,2,700.8779776999727,,700.8639052999206,700.8779776999727,701.8787253999617,701.8787253999617,701.8787253999617,702.6812549999449,space,0.7990822000429034,None,702.6823645998957,703.3950543666181,703.7041801000014,703.6898527999874,703.6898985999869,703.7041801000014,703.7041801000014,703.7041801000014,705.1463027999271,478,1,[1.454204099951312],[1.4542126999003813],257325,001,2024-11-14_19h20.13.916,intentional binding task,2024.1.5,None,2024-11-14 19h20.25.146951 +0530,
0.4,1000,unexp,13,7,137,4,705.1610845999094,,705.147031600005,705.1610845999094,706.1609524999512,706.1609524999512,706.1609524999512,706.6959440999199,space,0.5331827000482008,None,706.6963298999472,707.1116573665679,707.4233648999361,707.4099653000012,707.4100103999954,707.4233648999361,707.4233648999361,707.4233648999361,709.0120389999356,574,1,[1.5998840999091044],[1.5998914999654517],257325,001,2024-11-14_19h20.13.916,intentional binding task,2024.1.5,None,2024-11-14 19h20.25.146951 +0530,
0.4,1000,unexp,13,8,138,1,709.0286156999646,,709.0127498999937,709.0286156999646,710.0277063999092,710.0277063999092,710.0277063999092,710.928737499984,space,0.8993906000396237,None,710.9291970999911,711.3448370666631,711.6519853000063,711.63974959997,711.639791399939,711.6519853000063,711.6519853000063,711.6519853000063,713.1294916999759,734,1,[1.4876145999878645],[1.4876228999346495],257325,001,2024-11-14_19h20.13.916,intentional binding task,2024.1.5,None,2024-11-14 19h20.25.146951 +0530,
0.7,400,exp,13,9,139,8,713.1442862999393,,713.1303218998946,713.1442862999393,714.1442518999102,714.1442518999102,714.1442518999102,714.5619874999393,space,0.41573939996305853,None,714.5623762999894,715.2775280665994,715.5939709999366,715.5808847999433,715.5809357999824,715.5939709999366,715.5939709999366,715.5939709999366,718.3295325998915,384,1,[2.745888300007209],[2.745900299982168],257325,001,2024-11-14_19h20.13.916,intentional binding task,2024.1.5,None,2024-11-14 19h20.25.146951 +0530,
0.4,400,exp,14,0,140,7,718.3453278999077,,718.3309476999566,718.3453278999077,719.3441941000056,719.3441941000056,719.3603406999027,719.8613337998977,space,0.5048936000093818,None,719.8617328999098,720.2769031666141,720.5907928999513,720.5792587999022,720.5792950999457,720.5907928999513,720.5907928999513,720.5907928999513,722.061907999916,567,1,[1.481046500033699],[1.4810539000900462],257325,001,2024-11-14_19h20.13.916,intentional binding task,2024.1.5,None,2024-11-14 19h20.25.146951 +0530,
0.1,400,exp,14,1,141,6,722.0768864999991,,722.0626830999972,722.0768864999991,723.0771432999754,723.0771432999754,723.0771432999754,723.4286806999007,space,0.3497827999526635,None,723.4290892999852,723.5435756665577,723.8473625999177,723.8390537999803,723.8390729998937,723.8473625999177,723.8473625999177,723.8473625999177,725.3947307999479,483,1,[1.5543912999564782],[1.554397700005211],257325,001,2024-11-14_19h20.13.916,intentional binding task,2024.1.5,None,2024-11-14 19h20.25.146951 +0530,
0.1,1000,unexp,14,2,142,3,725.4104346999666,,725.3954015999334,725.4104346999666,726.4105610999977,726.4105610999977,726.4105610999977,726.5617880999343,space,0.1470772000029683,None,726.562179200002,726.6767904665942,,726.9515769999707,726.9516323999269,726.9642848999938,726.9642848999938,726.9642848999938,728.6788821999216,378,1,[1.7248230000259355],[1.7248400000389665],257325,001,2024-11-14_19h20.13.916,intentional binding task,2024.1.5,None,2024-11-14 19h20.25.146951 +0530,
0.4,1000,unexp,14,3,143,1,728.6937815999845,,728.6804960999871,728.6937815999845,729.6940029999241,729.6940029999241,729.6940029999241,730.0279420999577,space,0.3314267999958247,None,730.0283550999593,730.4279828665933,730.7483647000045,730.7309889999451,730.7356939999154,730.7483647000045,730.7483647000045,730.7483647000045,733.3620465999702,384,1,[2.6243993000825867],[2.6244113000575453],257325,001,2024-11-14_19h20.13.916,intentional binding task,2024.1.5,None,2024-11-14 19h20.25.146951 +0530,
0.1,1000,unexp,14,4,144,0,733.3766893999418,,733.362819599919,733.3766893999418,734.3774377999362,734.3774377999362,734.3774377999362,734.8312232999597,space,0.44123510003555566,None,734.8326944999862,734.9437378666519,735.2571447999217,735.2403708999045,735.2404148998903,735.2571447999217,735.2571447999217,735.2571447999217,737.9281736999983,463,1,[2.6856682000216097],[2.6856749000726268],257325,001,2024-11-14_19h20.13.916,intentional binding task,2024.1.5,None,2024-11-14 19h20.25.146951 +0530,
0.7,400,exp,14,5,145,5,737.9434078999329,,737.9289165999508,737.9434078999329,738.943869199953,738.943869199953,738.943869199953,739.5304969999706,space,0.5827014000387862,None,739.531385099981,740.2436900665673,740.5570497999433,740.5430811999831,740.543138399953,740.5570497999433,740.5570497999433,740.5570497999433,742.2773859999143,384,1,[1.7319126999936998],[1.7319191000424325],257325,001,2024-11-14_19h20.13.916,intentional binding task,2024.1.5,None,2024-11-14 19h20.25.146951 +0530,
0.7,400,exp,14,6,146,8,742.2931289999979,,742.2780632999493,742.2931289999979,743.2939207999734,743.2939207999734,743.2939207999734,746.229900999926,space,2.920604499988258,None,746.2309245999204,746.943450866562,747.305022799992,747.2958863999229,747.2959233999718,747.305022799992,747.305022799992,747.305022799992,749.2612247999059,387,1,[1.96383269992657],[1.9638393999775872],257325,001,2024-11-14_19h20.13.916,intentional binding task,2024.1.5,None,2024-11-14 19h20.25.146951 +0530,
0.1,400,exp,14,7,147,9,749.2760857999092,,749.2621513999766,749.2760857999092,750.276680199895,750.276680199895,750.276680199895,750.746662999969,space,0.46022659994196147,None,750.7472185998922,750.8591631666679,,751.1193475999171,751.1193851999706,751.1316215998959,751.1316215998959,751.1316215998959,753.1607341999188,475,1,[2.039347100071609],[2.039355000015348],257325,001,2024-11-14_19h20.13.916,intentional binding task,2024.1.5,None,2024-11-14 19h20.25.146951 +0530,
0.7,1000,unexp,14,8,148,2,753.1761604999192,,753.1615114999004,753.1761604999192,754.1763289999217,754.1763289999217,754.1763289999217,754.3478458999889,space,0.16620510001666844,None,754.3485478999792,755.0588180666712,,755.3192383999703,755.3192676999606,755.3280691999244,755.3280691999244,755.3280691999244,756.7273724999977,387,1,[1.4066586999688298],[1.4066680000396445],257325,001,2024-11-14_19h20.13.916,intentional binding task,2024.1.5,None,2024-11-14 19h20.25.146951 +0530,
0.4,1000,unexp,14,9,149,4,756.7425182999577,,756.7282399999676,756.7425182999577,757.7422894999618,757.7422894999618,757.7422894999618,757.978998699924,space,0.2239448999753222,None,757.9799224999733,758.3928504666003,758.7045423999662,758.6898559998954,758.6899217999307,758.7045423999662,758.7045423999662,758.7045423999662,760.2766950998921,476,1,[1.5838168000336736],[1.583823399967514],257325,001,2024-11-14_19h20.13.916,intentional binding task,2024.1.5,None,2024-11-14 19h20.25.146951 +0530,
0.4,400,exp,15,0,150,7,760.2922702999786,,760.2774048999418,760.2922702999786,761.2923863999313,761.2923863999313,761.2923863999313,761.4099228999112,space,None,None,761.4103059999179,761.8254502666571,762.1331785999937,762.120042799972,762.1200797999045,762.1331785999937,762.1331785999937,762.1331785999937,763.9938651999692,928,1,[1.871872500050813],[1.871880799997598],257325,001,2024-11-14_19h20.13.916,intentional binding task,2024.1.5,None,2024-11-14 19h20.25.146951 +0530,
0.1,1000,unexp,15,1,151,3,764.0090418999316,,763.994671799941,764.0090418999316,765.0088124999311,765.0088124999311,765.0088124999311,765.3095649000024,space,0.2910448999609798,None,765.3099356999155,765.4255110666311,765.729232499958,765.7192095000064,765.7192339999601,765.729232499958,765.729232499958,765.729232499958,767.460411899956,834,1,[1.7398029000032693],[1.7398102999432012],257325,001,2024-11-14_19h20.13.916,intentional binding task,2024.1.5,None,2024-11-14 19h20.25.146951 +0530,
0.7,1000,unexp,15,2,152,2,767.4753926999401,,767.4611866999185,767.4753926999401,768.4754018998938,768.4754018998938,768.4754018998938,768.6272160999943,space,0.1500929999165237,None,768.6275819999864,769.3275913666623,769.6421272999141,769.6269591999007,769.6269986999687,769.6421272999141,769.6421272999141,769.6421272999141,771.5268583999714,387,1,[1.897823900100775],[1.8978317000437528],257325,001,2024-11-14_19h20.13.916,intentional binding task,2024.1.5,None,2024-11-14 19h20.25.146951 +0530,
0.4,1000,unexp,15,3,153,4,771.5417998000048,,771.5276255999925,771.5417998000048,772.5432074998971,772.5432074998971,772.5432074998971,772.7928502999712,space,0.23467550007626414,None,772.7932033999823,773.2086565666289,773.5234836000018,773.5099173999624,773.5099596999353,773.5234836000018,773.5234836000018,773.5234836000018,775.6606515999883,465,1,[2.1484026999678463],[2.148410400026478],257325,001,2024-11-14_19h20.13.916,intentional binding task,2024.1.5,None,2024-11-14 19h20.25.146951 +0530,
0.1,400,exp,15,4,154,9,775.6750662999693,,775.6613676999696,775.6750662999693,776.6750896999147,776.6750896999147,776.6750896999147,777.5424513999606,space,0.8568294999422505,None,777.5428169999504,777.6581484666715,777.9670222999994,777.9590752999065,777.9590917999158,777.9670222999994,777.9670222999994,777.9670222999994,780.0594673999585,348,1,[2.0990911999251693],[2.099098199978471],257325,001,2024-11-14_19h20.13.916,intentional binding task,2024.1.5,None,2024-11-14 19h20.25.146951 +0530,
0.7,400,exp,15,5,155,8,780.0749377999455,,780.0602026999695,780.0749377999455,781.0751821999438,781.0751821999438,781.0751821999438,781.3953577999491,space,0.3159942999482155,None,781.3961537999567,782.108182866654,782.4098132998915,782.4000863999827,782.4001033999957,782.4098132998915,782.4098132998915,782.4098132998915,786.4262308999896,437,1,[4.024767099996097],[4.024774799938314],257325,001,2024-11-14_19h20.13.916,intentional binding task,2024.1.5,None,2024-11-14 19h20.25.146951 +0530,
0.1,1000,unexp,15,6,156,0,786.4411620999454,,786.4272106999997,786.4411620999454,787.4409980999772,787.4409980999772,787.4409980999772,788.243359599961,space,0.7935880000004545,None,788.2444100999273,788.357874066631,788.6731072999537,788.6600402999902,788.6600868999958,788.6731072999537,788.6731072999537,788.6731072999537,790.692587699974,437,1,[2.03032030002214],[2.0303290000883862],257325,001,2024-11-14_19h20.13.916,intentional binding task,2024.1.5,None,2024-11-14 19h20.25.146951 +0530,
0.7,400,exp,15,7,157,5,790.7078761999728,,790.6933163999347,790.7078761999728,791.7077974999556,791.7077974999556,791.7077974999556,792.2460814999649,space,0.5332792999688536,None,792.2469443998998,792.9580758666309,793.274680399918,793.2601503999904,793.260211899993,793.274680399918,793.274680399918,793.274680399918,795.3595981999533,473,1,[2.096374500077218],[2.0963868000544608],257325,001,2024-11-14_19h20.13.916,intentional binding task,2024.1.5,None,2024-11-14 19h20.25.146951 +0530,
0.4,1000,unexp,15,8,158,1,795.3742851999123,,795.3609128999524,795.3742851999123,796.374986599898,796.374986599898,796.374986599898,796.7615151999053,space,0.3754665000597015,None,796.7626894999994,797.1748509666106,797.483062199899,797.4695080999518,797.4695675999392,797.483062199899,797.483062199899,797.483062199899,799.4093238998903,473,1,[1.93744610005524],[1.9374647999648005],257325,001,2024-11-14_19h20.13.916,intentional binding task,2024.1.5,None,2024-11-14 19h20.25.146951 +0530,
0.1,400,exp,15,9,159,6,799.4240137999877,,799.410063499934,799.4240137999877,800.424197299988,800.424197299988,800.424197299988,801.0418184999144,space,0.6012206999585032,None,801.0422186999349,801.1571936666189,801.4576808999991,801.4488002998987,801.4488200999331,801.4576808999991,801.4576808999991,801.4576808999991,803.6419697999954,487,1,[2.1917276999447495],[2.191736100008711],257325,001,2024-11-14_19h20.13.916,intentional binding task,2024.1.5,None,2024-11-14 19h20.25.146951 +0530,
0.7,1000,unexp,16,0,160,2,803.6572080999613,,803.6426609999035,803.6572080999613,804.6571064000018,804.6571064000018,804.6571064000018,805.1772665999597,space,0.5164375000167638,None,805.178116499912,805.8912447665973,806.2059918999439,806.1905063999584,806.1905638999306,806.2059918999439,806.2059918999439,806.2059918999439,808.358745799982,348,1,[2.1654887000331655],[2.1654980999883264],257325,001,2024-11-14_19h20.13.916,intentional binding task,2024.1.5,None,2024-11-14 19h20.25.146951 +0530,
0.4,400,exp,16,1,161,7,808.3737651999108,,808.3595834999578,808.3737651999108,809.3737922,809.3737922,809.3737922,810.6258183999453,space,1.2499602000461891,None,810.626214299933,811.040267266628,811.3512441999046,811.3395506999223,811.339584399946,811.3512441999046,811.3512441999046,811.3512441999046,812.8086975999177,463,1,[1.4673085000831634],[1.4673151000170037],257325,001,2024-11-14_19h20.13.916,intentional binding task,2024.1.5,None,2024-11-14 19h20.25.146951 +0530,
0.1,400,exp,16,2,162,9,812.8236596999923,,812.8094400999835,812.8236596999923,813.8236660999246,813.8236660999246,813.8236660999246,814.3911779999034,space,0.5621165999909863,None,814.3915629999246,814.5067419666486,814.8224712999072,814.809906099923,814.8099818999181,814.8224712999072,814.8224712999072,814.8224712999072,816.4252619999461,374,1,[1.6131097000325099],[1.6131220000097528],257325,001,2024-11-14_19h20.13.916,intentional binding task,2024.1.5,None,2024-11-14 19h20.25.146951 +0530,
0.1,1000,unexp,16,3,163,3,816.4398938999511,,816.4259937999304,816.4398938999511,817.440981999971,817.440981999971,817.440981999971,818.2078957000049,space,0.7582752000307664,None,818.208314999938,818.3231388666356,818.6332237999886,818.6202378999442,818.6202815999277,818.6332237999886,818.6332237999886,818.6332237999886,820.5412247999338,831,1,[1.9183030999265611],[1.9183107999851927],257325,001,2024-11-14_19h20.13.916,intentional binding task,2024.1.5,None,2024-11-14 19h20.25.146951 +0530,
0.4,1000,unexp,16,4,164,1,820.556520299986,,820.5419536998961,820.556520299986,821.5563890999183,821.5563890999183,821.5563890999183,822.2246354999952,space,0.6621723000425845,None,822.2250346998917,822.6405873665974,822.9525171999121,822.9399011998903,822.9399580999743,822.9525171999121,822.9525171999121,822.9525171999121,824.1576018999331,387,1,[1.215508499997668],[1.2155142999254167],257325,001,2024-11-14_19h20.13.916,intentional binding task,2024.1.5,None,2024-11-14 19h20.25.146951 +0530,
0.1,400,exp,16,5,165,6,824.1731657999335,,824.1583017999073,824.1731657999335,825.1729999999516,825.1729999999516,825.1729999999516,825.5577085999539,space,0.38047470001038164,None,825.5581159999128,825.6727934666599,825.9830818999326,825.9693613999989,825.9694047999801,825.9830818999326,825.9830818999326,825.9830818999326,828.1579843999352,473,1,[2.1863718000240624],[2.186383099993691],257325,001,2024-11-14_19h20.13.916,intentional binding task,2024.1.5,None,2024-11-14 19h20.25.146951 +0530,
0.7,400,exp,16,6,166,8,828.1729497999186,,828.1589041999541,828.1729497999186,829.1727625000058,829.1727625000058,829.1727625000058,829.9413584999274,space,0.7668612999841571,None,829.9417386999121,830.6416616666286,830.9559305999428,830.9423843999393,830.9424165999517,830.9559305999428,830.9559305999428,830.9559305999428,834.3240938999224,146,1,[3.3797298999270424],[3.3797378999879584],257325,001,2024-11-14_19h20.13.916,intentional binding task,2024.1.5,None,2024-11-14 19h20.25.146951 +0530,
0.4,1000,unexp,16,7,167,4,834.3393002999946,,834.3247661999194,834.3393002999946,835.3393792998977,835.3393792998977,835.3393792998977,835.6239849999547,space,0.2718903000932187,None,835.6244771999773,836.0410497666492,836.3578325998969,836.3422774999635,836.3423199999379,836.3578325998969,836.3578325998969,836.3578325998969,838.7075232999632,843,1,[2.362913000048138],[2.3629208999918774],257325,001,2024-11-14_19h20.13.916,intentional binding task,2024.1.5,None,2024-11-14 19h20.25.146951 +0530,
0.1,1000,unexp,16,8,168,0,838.7225411999971,,838.7082400999498,838.7225411999971,839.7222247999161,839.7222247999161,839.7222247999161,840.8091971999966,space,1.0764171000337228,None,840.8102649999782,840.9228590665773,841.2356156999012,841.2194238998927,841.2194890999235,841.2356156999012,841.2356156999012,841.2356156999012,843.424040999962,567,1,[2.2016334000509232],[2.2016399001004174],257325,001,2024-11-14_19h20.13.916,intentional binding task,2024.1.5,None,2024-11-14 19h20.25.146951 +0530,
0.7,400,exp,16,9,169,5,843.439188499935,,843.4247659998946,843.439188499935,844.4397010999965,844.4397010999965,844.4397010999965,845.1748401999939,space,0.7296183999860659,None,845.1757164999144,845.889076366617,846.2054869999411,846.1903063999489,846.1903667999431,846.2054869999411,846.2054869999411,846.2054869999411,850.1902551999083,384,1,[3.9972728999564424],[3.997280400013551],257325,001,2024-11-14_19h20.13.916,intentional binding task,2024.1.5,None,2024-11-14 19h20.25.146951 +0530,
0.7,400,exp,17,0,170,8,850.2051738000009,,850.190948399948,850.2051738000009,851.2058225999353,851.2058225999353,851.2058225999353,851.7080462999875,space,0.49389899999368936,None,851.7089713999303,852.4227246666017,852.7350540999323,852.7195030999137,852.7195597999962,852.7350540999323,852.7350540999323,852.7350540999323,854.5569510000059,456,1,[1.8343906999798492],[1.8343974999152124],257325,001,2024-11-14_19h20.13.916,intentional binding task,2024.1.5,None,2024-11-14 19h20.25.146951 +0530,
0.4,1000,unexp,17,1,171,1,854.5719300999772,,854.5576966999797,854.5719300999772,855.5722518999828,855.5722518999828,855.5722518999828,856.2752077999758,space,0.6969675999134779,None,856.2760952999815,856.689158166588,857.0035702999448,856.9895754999015,856.9896341999993,857.0035702999448,857.0035702999448,857.0035702999448,858.7902602999238,387,1,[1.798114400007762],[1.7981225000694394],257325,001,2024-11-14_19h20.13.916,intentional binding task,2024.1.5,None,2024-11-14 19h20.25.146951 +0530,
0.4,1000,unexp,17,2,172,4,858.8051738999784,,858.7910687999101,858.8051738999784,859.8048501999583,859.8048501999583,859.8048501999583,860.3892626999877,space,0.5690645000431687,None,860.3896622000029,860.80484286667,861.1071812999435,861.0986180999316,861.0986364999553,861.1071812999435,861.1071812999435,861.1071812999435,862.5734630998923,465,1,[1.473507900023833],[1.473515799967572],257325,001,2024-11-14_19h20.13.916,intentional binding task,2024.1.5,None,2024-11-14 19h20.25.146951 +0530,
0.1,1000,unexp,17,3,173,0,862.5882135999855,,862.5742158999201,862.5882135999855,863.5886105999816,863.5886105999816,863.5886105999816,864.8412595998961,space,1.2483458999777213,None,864.8423417999875,864.9554763666276,865.2695173999527,865.2561132999836,865.2561649999116,865.2695173999527,865.2695173999527,865.2695173999527,868.7062105999794,347,1,[3.447855700040236],[3.4478679000167176],257325,001,2024-11-14_19h20.13.916,intentional binding task,2024.1.5,None,2024-11-14 19h20.25.146951 +0530,
0.1,1000,unexp,17,4,174,3,868.7218425999163,,868.7074629999697,868.7218425999163,869.7215919999871,869.7215919999871,869.7215919999871,870.5569201000035,space,0.8198823999846354,None,870.5578440999379,870.6713846666428,870.9836343999486,870.9701734998962,870.9702326999977,870.9836343999486,870.9836343999486,870.9836343999486,873.0560563999461,834,1,[2.083238600054756],[2.0832470000023022],257325,001,2024-11-14_19h20.13.916,intentional binding task,2024.1.5,None,2024-11-14 19h20.25.146951 +0530,
0.7,1000,unexp,17,5,175,2,873.0712657999247,,873.0568476999179,873.0712657999247,874.0714699999662,874.0714699999662,874.0714699999662,874.355380199966,space,0.2672949999105185,None,874.3557307999581,875.07070066658,875.3842540999176,875.3704760998953,875.3705272999359,875.3842540999176,875.3842540999176,875.3842540999176,877.0389826999744,283,1,[1.6661469999235123],[1.6661750000203028],257325,001,2024-11-14_19h20.13.916,intentional binding task,2024.1.5,None,2024-11-14 19h20.25.146951 +0530,
0.1,400,exp,17,6,176,9,877.0541894999333,,877.0396685999585,877.0541894999333,878.0544320999179,878.0544320999179,878.0544320999179,878.2068915999262,space,0.1487292000092566,None,878.2079102999996,878.3210289666351,878.6338475999655,878.6210426999023,878.6210996999871,878.6338475999655,878.6338475999655,878.6338475999655,880.2558110998943,754,1,[1.6322747999802232],[1.632281000027433],257325,001,2024-11-14_19h20.13.916,intentional binding task,2024.1.5,None,2024-11-14 19h20.25.146951 +0530,
0.7,400,exp,17,7,177,5,880.2708830999909,,880.2565660999389,880.2708830999909,881.2712184999837,881.2712184999837,881.2712184999837,882.156193099916,space,0.8709600999718532,None,882.1568992999382,882.870766866665,883.1863914999412,883.1700710000005,883.1701396999415,883.1863914999412,883.1863914999412,883.1863914999412,884.7394453999586,384,1,[1.5652543999021873],[1.5652648999821395],257325,001,2024-11-14_19h20.13.916,intentional binding task,2024.1.5,None,2024-11-14 19h20.25.146951 +0530,
0.4,400,exp,17,8,178,7,884.7540626999689,,884.7406092999736,884.7540626999689,885.7541244999738,885.7541244999738,885.7541244999738,886.041086299927,space,0.28346659999806434,None,886.0420123999938,886.4544787665984,886.7633658999112,886.7492513000034,886.7493080999702,886.7633658999112,886.7633658999112,886.7633658999112,887.921900199959,283,1,[1.1704610999440774],[1.1704680999973789],257325,001,2024-11-14_19h20.13.916,intentional binding task,2024.1.5,None,2024-11-14 19h20.25.146951 +0530,
0.1,400,exp,17,9,179,6,887.937201899942,,887.9228057999862,887.937201899942,888.9369653000031,888.9369653000031,888.9369653000031,889.706296499935,space,0.7615454000188038,None,889.7070397000061,889.8202721665768,,890.1009756999556,890.1010195999406,890.1143582999939,890.1143582999939,890.1143582999939,891.8047013999894,384,1,[1.7011609999462962],[1.7011674999957904],257325,001,2024-11-14_19h20.13.916,intentional binding task,2024.1.5,None,2024-11-14 19h20.25.146951 +0530,
0.4,1000,unexp,18,0,180,1,891.820460399962,,891.8054380998947,891.820460399962,892.8202483999776,892.8202483999776,892.8202483999776,893.6585980999516,space,0.8353351999539882,None,893.6594043999212,894.0706254665895,894.3800342999166,894.3645277000032,894.3645817999495,894.3800342999166,894.3800342999166,894.3800342999166,896.1386039999779,734,1,[1.7715519000776112],[1.7715610000304878],257325,001,2024-11-14_19h20.13.916,intentional binding task,2024.1.5,None,2024-11-14 19h20.25.146951 +0530,
0.4,1000,unexp,18,1,181,4,896.1535498999292,,896.1393118998967,896.1535498999292,897.1533046999248,897.1533046999248,897.1533046999248,898.1577811999014,space,0.999113199999556,None,898.158911199891,898.5697219665783,898.8754919999046,898.8620651999954,898.8621125000063,898.8754919999046,898.8754919999046,898.8754919999046,900.1383631000062,347,1,[1.2740005999803543],[1.2740077999187633],257325,001,2024-11-14_19h20.13.916,intentional binding task,2024.1.5,None,2024-11-14 19h20.25.146951 +0530,
0.7,400,exp,18,2,182,5,900.1533693999518,,900.1391246999847,900.1533693999518,901.1534741999349,901.1534741999349,901.1534741999349,901.4244432999985,space,0.2670844999374822,None,901.425407200004,902.1374307666595,902.4468867999967,902.432777699898,902.4328391999006,902.4468867999967,902.4468867999967,902.4468867999967,904.1881921999156,654,1,[1.752770199906081],[1.7527784999692813],257325,001,2024-11-14_19h20.13.916,intentional binding task,2024.1.5,None,2024-11-14 19h20.25.146951 +0530,
0.4,400,exp,18,3,183,7,904.2030831999145,,904.1889188999776,904.2030831999145,905.2030520999106,905.2030520999106,905.2030520999106,905.7041831999086,space,0.48575029999483377,None,905.7045433999738,906.1195433666619,906.434361499967,906.420580899925,906.4206394999055,906.434361499967,906.434361499967,906.434361499967,907.8543315998977,438,1,[1.4311513000866398],[1.4311605000402778],257325,001,2024-11-14_19h20.13.916,intentional binding task,2024.1.5,None,2024-11-14 19h20.25.146951 +0530,
0.7,1000,unexp,18,4,184,2,907.869749299949,,907.8556777999038,907.869749299949,908.8701743999263,908.8701743999263,908.8701743999263,909.2043160999892,space,0.3295094999484718,None,909.2047203999246,909.9199700665815,910.234754199977,910.2192116999067,910.2192672999809,910.234754199977,910.234754199977,910.234754199977,912.0874548999127,574,1,[1.8649672999745235],[1.8649746999144554],257325,001,2024-11-14_19h20.13.916,intentional binding task,2024.1.5,None,2024-11-14 19h20.25.146951 +0530,
0.1,1000,unexp,18,5,185,3,912.1027968999697,,912.0883338999702,912.1027968999697,913.0865193998907,913.0865193998907,913.1029840999981,914.5729440998985,space,1.4736942000454292,None,914.5741741999518,914.6866791665709,914.9915724999737,914.9789039999014,914.9789504999062,914.9915724999737,914.9915724999737,914.9915724999737,916.6880132999504,564,1,[1.707097199978307],[1.707104800036177],257325,001,2024-11-14_19h20.13.916,intentional binding task,2024.1.5,None,2024-11-14 19h20.25.146951 +0530,
0.1,400,exp,18,6,186,9,916.7027550999774,,916.6887875999091,916.7027550999774,917.702512799995,917.702512799995,917.702512799995,918.0703900998924,space,0.35334230004809797,None,918.070778699941,918.185795066591,918.4868274999317,918.4782443000004,918.4782640999183,918.4868274999317,918.4868274999317,918.4868274999317,921.5384877999313,467,1,[3.0582624000962824],[3.0582768000895157],257325,001,2024-11-14_19h20.13.916,intentional binding task,2024.1.5,None,2024-11-14 19h20.25.146951 +0530,
0.1,1000,unexp,18,7,187,0,921.552423599991,,921.5405059999321,921.552423599991,922.552257400006,922.552257400006,922.552257400006,923.8875717999181,space,1.328919199993834,None,923.888542199973,924.0025103665578,924.3151014999021,924.2992350999266,924.299278399907,924.3151014999021,924.3151014999021,924.3151014999021,926.3700659999158,347,1,[2.068172700004652],[2.0681794999400154],257325,001,2024-11-14_19h20.13.916,intentional binding task,2024.1.5,None,2024-11-14 19h20.25.146951 +0530,
0.7,400,exp,18,8,188,8,926.385800799937,,926.3707525999052,926.385800799937,927.386041999911,927.386041999911,927.386041999911,928.0038641999708,space,0.602075400063768,None,928.0045566000044,928.718966966557,929.0361982999602,929.0210097999079,929.0210668999935,929.0361982999602,929.0361982999602,929.0361982999602,932.0205088999355,357,1,[2.9967825999483466],[2.9967902000062168],257325,001,2024-11-14_19h20.13.916,intentional binding task,2024.1.5,None,2024-11-14 19h20.25.146951 +0530,
0.1,400,exp,18,9,189,6,932.0355098999571,,932.0212043999927,932.0355098999571,933.0353888999671,933.0353888999671,933.0353888999671,933.8203188999323,space,0.7767281000269577,None,933.8212899999926,933.9352921666034,934.237825899967,934.2281843998935,934.2282019999111,934.237825899967,934.237825899967,934.237825899967,935.7200160999782,837,1,[1.4904425999848172],[1.4904493999201804],257325,001,2024-11-14_19h20.13.916,intentional binding task,2024.1.5,None,2024-11-14 19h20.25.146951 +0530,
0.7,400,exp,19,0,190,8,935.7352515999228,,935.7207585999276,935.7352515999228,936.7362644999521,936.7362644999521,936.7362644999521,936.8696519999066,space,0.12928730004932731,None,936.8700368999271,937.5858329666701,937.8948722999776,937.8800252999645,937.8800944999093,937.8948722999776,937.8948722999776,937.8948722999776,939.220922099892,576,1,[1.3382282999809831],[1.3382369000464678],257325,001,2024-11-14_19h20.13.916,intentional binding task,2024.1.5,None,2024-11-14 19h20.25.146951 +0530,
0.4,400,exp,19,1,191,7,939.2351143999258,,939.2216465999372,939.2351143999258,940.2351795999566,940.2351795999566,940.2351795999566,940.5692854999797,space,0.3195318999933079,None,940.5696304999292,940.9850850665864,941.2924098999938,941.2791880998993,941.2792405999498,941.2924098999938,941.2924098999938,941.2924098999938,943.052693799953,384,1,[1.7712047999957576],[1.7712114000460133],257325,001,2024-11-14_19h20.13.916,intentional binding task,2024.1.5,None,2024-11-14 19h20.25.146951 +0530,
0.7,400,exp,19,2,192,5,943.0683589999098,,943.0534404999344,943.0683589999098,944.0683988999808,944.0683988999808,944.0683988999808,945.4524116999237,space,1.3679445000598207,None,945.4527987999609,946.1523513666509,946.4665531999199,946.4554867999395,946.4555174999405,946.4665531999199,946.4665531999199,946.4665531999199,948.2027125000022,363,1,[1.7457879000576213],[1.7457982000196353],257325,001,2024-11-14_19h20.13.916,intentional binding task,2024.1.5,None,2024-11-14 19h20.25.146951 +0530,
0.4,1000,unexp,19,3,193,1,948.2178068999201,,948.203482599929,948.2178068999201,949.2178636000026,949.2178636000026,949.2178636000026,949.3862186999759,space,0.1634215998928994,None,949.3866221999051,949.8014108666141,950.1137685999274,950.1002526999218,950.1003296999261,950.1137685999274,950.1137685999274,950.1137685999274,951.902766999905,283,1,[1.8001675000414252],[1.8001755999866873],257325,001,2024-11-14_19h20.13.916,intentional binding task,2024.1.5,None,2024-11-14 19h20.25.146951 +0530,
0.1,400,exp,19,4,194,9,951.9178958999692,,951.9035428999923,951.9178958999692,952.9180064999964,952.9180064999964,952.9180064999964,953.4690561000025,space,0.5389322999399155,None,953.4694243998965,953.5845121666246,953.8931337998947,953.8790139999473,953.8790541999042,953.8931337998947,953.8931337998947,953.8931337998947,955.1688649998978,745,1,[1.2876228999812156],[1.28762839990668],257325,001,2024-11-14_19h20.13.916,intentional binding task,2024.1.5,None,2024-11-14 19h20.25.146951 +0530,
0.1,400,exp,19,5,195,6,955.1843625999754,,955.169545999961,955.1843625999754,956.18446759996,956.18446759996,956.18446759996,956.5184662999818,space,0.3293335000053048,None,956.5188261999283,956.6342976666676,956.9433549999958,956.9293077999027,956.929335599998,956.9433549999958,956.9433549999958,956.9433549999958,959.1027191999601,283,1,[2.1716443999903277],[2.171652099932544],257325,001,2024-11-14_19h20.13.916,intentional binding task,2024.1.5,None,2024-11-14 19h20.25.146951 +0530,
0.4,1000,unexp,19,6,196,4,959.1176842999412,,959.1034138998948,959.1176842999412,960.1177466999507,960.1177466999507,960.1177466999507,960.4353020999115,space,0.31483759998809546,None,960.4356951999944,960.8508116666383,961.1567682999885,961.1481857999461,961.1482159999432,961.1567682999885,961.1567682999885,961.1567682999885,962.6695817,487,1,[1.519773600040935],[1.5197854000143707],257325,001,2024-11-14_19h20.13.916,intentional binding task,2024.1.5,None,2024-11-14 19h20.25.146951 +0530,
0.7,1000,unexp,19,7,197,2,962.6844285998959,,962.6703410999617,962.6844285998959,963.6838016998954,963.6838016998954,963.6838016998954,964.2353445999324,space,0.5432311999611557,None,964.2357882999349,964.9505728666593,965.2575589999324,965.2481534999097,965.2481731999433,965.2575589999324,965.2575589999324,965.2575589999324,967.4849692999851,643,1,[2.2351754000410438],[2.235182599979453],257325,001,2024-11-14_19h20.13.916,intentional binding task,2024.1.5,None,2024-11-14 19h20.25.146951 +0530,
0.1,1000,unexp,19,8,198,3,967.5005363998935,,967.4856221999507,967.5005363998935,968.5005630999804,968.5005630999804,968.5005630999804,969.5534438999603,space,1.0356429000385106,None,969.5543651999906,969.667557666606,969.9849520999705,969.9696380998939,969.9696961999871,969.9849520999705,969.9849520999705,969.9849520999705,971.5032648999477,785,1,[1.5308938999660313],[1.5309009000193328],257325,001,2024-11-14_19h20.13.916,intentional binding task,2024.1.5,None,2024-11-14 19h20.25.146951 +0530,
0.1,1000,unexp,19,9,199,0,971.5171839999966,,971.5040279999375,971.5171839999966,972.5170313999988,972.5170313999988,972.5170313999988,972.8516177999554,space,0.3255946000572294,None,972.8520295999479,972.9669346665653,973.2834141999483,973.2691873000003,973.269239999936,973.2834141999483,973.2834141999483,973.2834141999483,975.5183652999112,748,1,[2.2466406000312418],[2.246651399997063],257325,001,2024-11-14_19h20.13.916,intentional binding task,2024.1.5,None,2024-11-14 19h20.25.146951 +0530,
