trials.thisRepN,trials.thisTrialN,trials.thisN,trials.thisIndex,thisRow.t,notes,ins.started,text.started,key_resp.started,ins.stopped,key_resp.keys,key_resp.rt,key_resp.duration,trial.started,num_distr,Fixation.started,target.started,mouse.started,trial.stopped,mouse.x,mouse.y,mouse.leftButton,mouse.midButton,mouse.rightButton,mouse.time,mouse.clicked_name,thanks.started,text_2.started,text_2.stopped,thanks.stopped,participant,session,date,expName,psychopyVersion,expStart
,,,,,,0.051352875,0.091564125,0.091564125,1.728297709,space,1.588003875,None,,,,,,,,,,,,,,,,,,AK,1,2024-10-04_11h15.24.560,V3,2024.1.5,2024-10-04 11h15.31.543838 +0530
0,0,0,0,1.788158125,,,,,,,,,1.7331805,5,1.788158125,1.788158125,0.027703167,3.009609459,[0.26],[-0.08444444444444445],[1],[0],[0],[1.2532212919322774],['target'],,,,,AK,1,2024-10-04_11h15.24.560,V3,2024.1.5,2024-10-04 11h15.31.543838 +0530
1,0,1,0,3.040021125,,,,,,,,,3.015059459,5,3.040021125,3.040021125,0.015409584,4.351669042,[-0.36666666666666664],[-0.36333333333333334],[1],[0],[0],[1.3218171669868752],['target'],,,,,AK,1,2024-10-04_11h15.24.560,V3,2024.1.5,2024-10-04 11h15.31.543838 +0530
2,0,2,0,4.398909417,,,,,,,,,4.355874792,10,4.398909417,4.398909417,0.028920125,6.05332775,[0.13333333333333333],[-0.4488888888888889],[1],[0],[0],[1.6691339999670163],['target'],,,,,AK,1,2024-10-04_11h15.24.560,V3,2024.1.5,2024-10-04 11h15.31.543838 +0530
3,0,3,0,6.100997125,,,,,,,,,6.057606584,10,6.100997125,6.100997125,0.029660709,7.377346625,[0.06555555555555556],[-0.27],[1],[0],[0],[1.290622083004564],['target'],,,,,AK,1,2024-10-04_11h15.24.560,V3,2024.1.5,2024-10-04 11h15.31.543838 +0530
4,0,4,0,7.406300584,,,,,,,,,7.381570167,5,7.406300584,7.406300584,0.015309958,8.530448292,[-0.39555555555555555],[0.35333333333333333],[1],[0],[0],[1.1341994579415768],['target'],,,,,AK,1,2024-10-04_11h15.24.560,V3,2024.1.5,2024-10-04 11h15.31.543838 +0530
5,0,5,0,8.55990125,,,,,,,,,8.53468075,5,8.55990125,8.55990125,0.015155417,9.457400334,[0.06555555555555556],[0.3688888888888889],[1],[0],[0],[0.9082057090708986],['target'],,,,,AK,1,2024-10-04_11h15.24.560,V3,2024.1.5,2024-10-04 11h15.31.543838 +0530
6,0,6,0,9.504078334,,,,,,,,,9.461631375,10,9.504078334,9.504078334,0.02878125,10.52065337,[0.3611111111111111],[0.20777777777777778],[1],[0],[0],[1.0307206249563023],['target'],,,,,AK,1,2024-10-04_11h15.24.560,V3,2024.1.5,2024-10-04 11h15.31.543838 +0530
7,0,7,0,10.57666837,,,,,,,,,10.525628,10,10.57666837,10.57666837,0.034885875,11.51787008,[0.43666666666666665],[0.4266666666666667],[1],[0],[0],[0.9580357089871541],['target'],,,,,AK,1,2024-10-04_11h15.24.560,V3,2024.1.5,2024-10-04 11h15.31.543838 +0530
8,0,8,0,11.54738479,,,,,,,,,11.52213104,5,11.54738479,11.54738479,0.015540708,12.50786671,[0.4066666666666667],[0.1288888888888889],[1],[0],[0],[0.9708261670311913],['target'],,,,,AK,1,2024-10-04_11h15.24.560,V3,2024.1.5,2024-10-04 11h15.31.543838 +0530
9,0,9,0,12.53689071,,,,,,,,,12.51215892,5,12.53689071,12.53689071,0.01509275,13.55100179,[-0.11333333333333333],[0.18333333333333332],[1],[0],[0],[1.0243852500570938],['target'],,,,,AK,1,2024-10-04_11h15.24.560,V3,2024.1.5,2024-10-04 11h15.31.543838 +0530
10,0,10,0,13.598059,,,,,,,,,13.5552405,10,13.598059,13.598059,0.028981875,14.61175392,[0.4855555555555556],[0.17444444444444446],[1],[0],[0],[1.0281582080060616],['target'],,,,,AK,1,2024-10-04_11h15.24.560,V3,2024.1.5,2024-10-04 11h15.31.543838 +0530
11,0,11,0,14.66105583,,,,,,,,,14.61599267,10,14.66105583,14.66105583,0.029638667,15.73770162,[0.04111111111111111],[0.3655555555555556],[1],[0],[0],[1.0926976249320433],['target'],,,,,AK,1,2024-10-04_11h15.24.560,V3,2024.1.5,2024-10-04 11h15.31.543838 +0530
12,0,12,0,15.78506367,,,,,,,,,15.7419795,10,15.78506367,15.78506367,0.029182625,17.35357379,[0.24],[-0.39],[1],[0],[0],[1.5830539169255644],['target'],,,,,AK,1,2024-10-04_11h15.24.560,V3,2024.1.5,2024-10-04 11h15.31.543838 +0530
13,0,13,0,17.4005525,,,,,,,,,17.35786017,10,17.4005525,17.4005525,0.028799042,18.51421192,[-0.30333333333333334],[0.35777777777777775],[1],[0],[0],[1.128186999936588],['target'],,,,,AK,1,2024-10-04_11h15.24.560,V3,2024.1.5,2024-10-04 11h15.31.543838 +0530
14,0,14,0,18.54331788,,,,,,,,,18.51844667,5,18.54331788,18.54331788,0.015089625,20.09065629,[-0.15666666666666668],[-0.24444444444444444],[1],[0],[0],[1.557756624999456],['target'],,,,,AK,1,2024-10-04_11h15.24.560,V3,2024.1.5,2024-10-04 11h15.31.543838 +0530
15,0,15,0,20.12070117,,,,,,,,,20.09488696,5,20.12070117,20.12070117,0.015603625,21.79119762,[0.10666666666666667],[0.28444444444444444],[1],[0],[0],[1.6813293340383098],['target'],,,,,AK,1,2024-10-04_11h15.24.560,V3,2024.1.5,2024-10-04 11h15.31.543838 +0530
16,0,16,0,21.82044475,,,,,,,,,21.795452,5,21.82044475,21.82044475,0.015420833,23.17453879,[0.12],[-0.22444444444444445],[1],[0],[0],[1.3642981660086662],['target'],,,,,AK,1,2024-10-04_11h15.24.560,V3,2024.1.5,2024-10-04 11h15.31.543838 +0530
17,0,17,0,23.203519,,,,,,,,,23.17871617,5,23.203519,23.203519,0.015087083,24.55761021,[0.4488888888888889],[-0.3844444444444444],[1],[0],[0],[1.3644246669718996],['target'],,,,,AK,1,2024-10-04_11h15.24.560,V3,2024.1.5,2024-10-04 11h15.31.543838 +0530
18,0,18,0,24.60442725,,,,,,,,,24.56185471,10,24.60442725,24.60442725,0.028815333,26.42132179,[0.49333333333333335],[0.0011111111111111111],[1],[0],[0],[1.8312566250097007],['target'],,,,,AK,1,2024-10-04_11h15.24.560,V3,2024.1.5,2024-10-04 11h15.31.543838 +0530
19,0,19,0,26.45063729,,,,,,,,,26.42561321,5,26.45063729,26.45063729,0.015389875,27.74132371,[0.44333333333333336],[0.18333333333333332],[1],[0],[0],[1.3009461660403758],['target'],,,,,AK,1,2024-10-04_11h15.24.560,V3,2024.1.5,2024-10-04 11h15.31.543838 +0530
20,0,20,0,27.78851812,,,,,,,,,27.74554125,10,27.78851812,27.78851812,0.029200792,29.10254046,[-0.22],[-0.4177777777777778],[1],[0],[0],[1.3283302910858765],['target'],,,,,AK,1,2024-10-04_11h15.24.560,V3,2024.1.5,2024-10-04 11h15.31.543838 +0530
21,0,21,0,29.13180504,,,,,,,,,29.10679017,5,29.13180504,29.13180504,0.015224792,30.23467658,[0.17666666666666667],[-0.23777777777777778],[1],[0],[0],[1.1132986668962985],['target'],,,,,AK,1,2024-10-04_11h15.24.560,V3,2024.1.5,2024-10-04 11h15.31.543838 +0530
22,0,22,0,30.2639845,,,,,,,,,30.23891454,5,30.2639845,30.2639845,0.015143334,31.54844404,[0.35],[0.4911111111111111],[1],[0],[0],[1.2924900419311598],['target'],,,,,AK,1,2024-10-04_11h15.24.560,V3,2024.1.5,2024-10-04 11h15.31.543838 +0530
23,0,23,0,31.6128715,,,,,,,,,31.55413896,10,31.6128715,31.6128715,0.0387385,32.47188046,[0.11333333333333333],[0.3],[1],[0],[0],[0.8798581670271233],['target'],,,,,AK,1,2024-10-04_11h15.24.560,V3,2024.1.5,2024-10-04 11h15.31.543838 +0530
24,0,24,0,32.52035017,,,,,,,,,32.47614596,10,32.52035017,32.52035017,0.030173791,33.6921795,[-0.31777777777777777],[-0.07],[1],[0],[0],[1.186474750051275],['target'],,,,,AK,1,2024-10-04_11h15.24.560,V3,2024.1.5,2024-10-04 11h15.31.543838 +0530
25,0,25,0,33.72131904,,,,,,,,,33.69642017,5,33.72131904,33.72131904,0.0153725,35.00180171,[0.22555555555555556],[-0.2511111111111111],[1],[0],[0],[1.290652957977727],['target'],,,,,AK,1,2024-10-04_11h15.24.560,V3,2024.1.5,2024-10-04 11h15.31.543838 +0530
26,0,26,0,35.03140825,,,,,,,,,35.00609046,5,35.03140825,35.03140825,0.015175041,36.20191417,[-0.027777777777777776],[0.13111111111111112],[1],[0],[0],[1.1812562909908593],['target'],,,,,AK,1,2024-10-04_11h15.24.560,V3,2024.1.5,2024-10-04 11h15.31.543838 +0530
27,0,27,0,36.24897717,,,,,,,,,36.20615883,10,36.24897717,36.24897717,0.028851083,37.45824313,[-0.45666666666666667],[-0.1411111111111111],[1],[0],[0],[1.22388804203365],['target'],,,,,AK,1,2024-10-04_11h15.24.560,V3,2024.1.5,2024-10-04 11h15.31.543838 +0530
28,0,28,0,37.48737087,,,,,,,,,37.46247687,5,37.48737087,37.48737087,0.015227166,38.818656,[0.1511111111111111],[-0.37444444444444447],[1],[0],[0],[1.3414694999810308],['target'],,,,,AK,1,2024-10-04_11h15.24.560,V3,2024.1.5,2024-10-04 11h15.31.543838 +0530
29,0,29,0,38.86598354,,,,,,,,,38.82289679,10,38.86598354,38.86598354,0.029239334,40.16869392,[0.015555555555555555],[-0.45111111111111113],[1],[0],[0],[1.3171069170348346],['target'],,,,,AK,1,2024-10-04_11h15.24.560,V3,2024.1.5,2024-10-04 11h15.31.543838 +0530
30,0,30,0,40.19817133,,,,,,,,,40.17297213,5,40.19817133,40.19817133,0.015343834,41.49235363,[0.06222222222222222],[-0.24444444444444444],[1],[0],[0],[1.3045833749929443],['target'],,,,,AK,1,2024-10-04_11h15.24.560,V3,2024.1.5,2024-10-04 11h15.31.543838 +0530
31,0,31,0,41.52163229,,,,,,,,,41.49658012,5,41.52163229,41.52163229,0.01520125,43.22537037,[0.4488888888888889],[0.41555555555555557],[1],[0],[0],[1.7140644160099328],['target'],,,,,AK,1,2024-10-04_11h15.24.560,V3,2024.1.5,2024-10-04 11h15.31.543838 +0530
32,0,32,0,43.254892,,,,,,,,,43.229603,5,43.254892,43.254892,0.015404417,44.41851462,[0.2922222222222222],[0.2544444444444444],[1],[0],[0],[1.1741401250474155],['target'],,,,,AK,1,2024-10-04_11h15.24.560,V3,2024.1.5,2024-10-04 11h15.31.543838 +0530
33,0,33,0,44.46549525,,,,,,,,,44.42278762,10,44.46549525,44.46549525,0.02872675,45.79573475,[-0.09555555555555556],[-0.056666666666666664],[1],[0],[0],[1.3448879159986973],['target'],,,,,AK,1,2024-10-04_11h15.24.560,V3,2024.1.5,2024-10-04 11h15.31.543838 +0530
34,0,34,0,45.82508558,,,,,,,,,45.80009021,5,45.82508558,45.82508558,0.015339541,46.75910438,[0.20555555555555555],[0.2311111111111111],[1],[0],[0],[0.9443516669562086],['target'],,,,,AK,1,2024-10-04_11h15.24.560,V3,2024.1.5,2024-10-04 11h15.31.543838 +0530
35,0,35,0,46.78822017,,,,,,,,,46.763318,5,46.78822017,46.78822017,0.015224459,47.89245233,[-0.12333333333333334],[-0.22111111111111112],[1],[0],[0],[1.114448667038232],['target'],,,,,AK,1,2024-10-04_11h15.24.560,V3,2024.1.5,2024-10-04 11h15.31.543838 +0530
36,0,36,0,47.92158667,,,,,,,,,47.89667329,5,47.92158667,47.92158667,0.015136042,49.13566871,[-0.31],[-0.4677777777777778],[1],[0],[0],[1.2245037500979379],['target'],,,,,AK,1,2024-10-04_11h15.24.560,V3,2024.1.5,2024-10-04 11h15.31.543838 +0530
37,0,37,0,49.18281617,,,,,,,,,49.13993088,10,49.18281617,49.18281617,0.0290095,50.29348892,[-0.14],[0.41444444444444445],[1],[0],[0],[1.1251780419843271],['target'],,,,,AK,1,2024-10-04_11h15.24.560,V3,2024.1.5,2024-10-04 11h15.31.543838 +0530
38,0,38,0,50.32322467,,,,,,,,,50.2977675,5,50.32322467,50.32322467,0.015640459,51.425755,[0.32222222222222224],[0.4033333333333333],[1],[0],[0],[1.1129901660606265],['target'],,,,,AK,1,2024-10-04_11h15.24.560,V3,2024.1.5,2024-10-04 11h15.31.543838 +0530
39,0,39,0,51.47296958,,,,,,,,,51.42996825,10,51.47296958,51.47296958,0.0289035,52.64250396,[0.2833333333333333],[0.35],[1],[0],[0],[1.184246874996461],['target'],,,,,AK,1,2024-10-04_11h15.24.560,V3,2024.1.5,2024-10-04 11h15.31.543838 +0530
40,0,40,0,52.68951921,,,,,,,,,52.64673658,10,52.68951921,52.68951921,0.02884425,53.91173537,[0.25333333333333335],[-0.23444444444444446],[1],[0],[0],[1.2367899590171874],['target'],,,,,AK,1,2024-10-04_11h15.24.560,V3,2024.1.5,2024-10-04 11h15.31.543838 +0530
41,0,41,0,53.94121408,,,,,,,,,53.91594721,5,53.94121408,53.94121408,0.015327916,55.27619367,[-0.3933333333333333],[-0.08333333333333333],[1],[0],[0],[1.345541915972717],['target'],,,,,AK,1,2024-10-04_11h15.24.560,V3,2024.1.5,2024-10-04 11h15.31.543838 +0530
42,0,42,0,55.32312767,,,,,,,,,55.28039942,10,55.32312767,55.32312767,0.028716834,58.201825,[0.41888888888888887],[0.48444444444444446],[1],[0],[0],[2.893130209064111],['target'],,,,,AK,1,2024-10-04_11h15.24.560,V3,2024.1.5,2024-10-04 11h15.31.543838 +0530
43,0,43,0,58.255733,,,,,,,,,58.20616525,10,58.255733,58.255733,0.033328125,59.66271604,[-0.011111111111111112],[0.1711111111111111],[1],[0],[0],[1.4238817079458386],['target'],,,,,AK,1,2024-10-04_11h15.24.560,V3,2024.1.5,2024-10-04 11h15.31.543838 +0530
44,0,44,0,59.691786,,,,,,,,,59.66697758,5,59.691786,59.691786,0.015285458,60.85963892,[0.2611111111111111],[0.37777777777777777],[1],[0],[0],[1.177953082951717],['target'],,,,,AK,1,2024-10-04_11h15.24.560,V3,2024.1.5,2024-10-04 11h15.31.543838 +0530
45,0,45,0,60.90636779,,,,,,,,,60.863848,10,60.90636779,60.90636779,0.028706833,62.11326767,[0.44222222222222224],[0.22444444444444445],[1],[0],[0],[1.2213265830650926],['target'],,,,,AK,1,2024-10-04_11h15.24.560,V3,2024.1.5,2024-10-04 11h15.31.543838 +0530
46,0,46,0,62.14266192,,,,,,,,,62.11754579,5,62.14266192,62.14266192,0.015417333,63.17632413,[0.25],[-0.06222222222222222],[1],[0],[0],[1.0439698750851676],['target'],,,,,AK,1,2024-10-04_11h15.24.560,V3,2024.1.5,2024-10-04 11h15.31.543838 +0530
47,0,47,0,63.22320179,,,,,,,,,63.18059646,10,63.22320179,63.22320179,0.028905458,65.57631242,[0.0022222222222222222],[-0.43333333333333335],[1],[0],[0],[2.3674429999664426],['target'],,,,,AK,1,2024-10-04_11h15.24.560,V3,2024.1.5,2024-10-04 11h15.31.543838 +0530
48,0,48,0,65.62338467,,,,,,,,,65.58062367,10,65.62338467,65.62338467,0.028854042,66.76247096,[0.28888888888888886],[-0.10888888888888888],[1],[0],[0],[1.1536547499708831],['target'],,,,,AK,1,2024-10-04_11h15.24.560,V3,2024.1.5,2024-10-04 11h15.31.543838 +0530
49,0,49,0,66.79158258,,,,,,,,,66.76672004,5,66.79158258,66.79158258,0.0151285,67.65985188,[-0.008888888888888889],[-0.2822222222222222],[1],[0],[0],[0.878629875020124],['target'],,,,,AK,1,2024-10-04_11h15.24.560,V3,2024.1.5,2024-10-04 11h15.31.543838 +0530
50,0,50,0,67.68927463,,,,,,,,,67.66413508,5,67.68927463,67.68927463,0.01528825,68.65964717,[-0.2],[0.1688888888888889],[1],[0],[0],[0.9808673330117017],['target'],,,,,AK,1,2024-10-04_11h15.24.560,V3,2024.1.5,2024-10-04 11h15.31.543838 +0530
51,0,51,0,68.70673317,,,,,,,,,68.66384067,10,68.70673317,68.70673317,0.028763917,69.87020888,[0.35555555555555557],[0.21666666666666667],[1],[0],[0],[1.1781722499290481],['target'],,,,,AK,1,2024-10-04_11h15.24.560,V3,2024.1.5,2024-10-04 11h15.31.543838 +0530
52,0,52,0,69.91727054,,,,,,,,,69.87449787,10,69.91727054,69.91727054,0.028813584,71.12939467,[-0.4633333333333333],[-0.057777777777777775],[1],[0],[0],[1.226665124995634],['target'],,,,,AK,1,2024-10-04_11h15.24.560,V3,2024.1.5,2024-10-04 11h15.31.543838 +0530
53,0,53,0,71.176868,,,,,,,,,71.13369983,10,71.176868,71.176868,0.029309125,72.19830146,[0.16555555555555557],[0.09],[1],[0],[0],[1.035924791940488],['target'],,,,,AK,1,2024-10-04_11h15.24.560,V3,2024.1.5,2024-10-04 11h15.31.543838 +0530
54,0,54,0,72.22738554,,,,,,,,,72.20258467,5,72.22738554,72.22738554,0.015102833,73.20356096,[-0.22111111111111112],[0.17555555555555555],[1],[0],[0],[0.9864150420762599],['target'],,,,,AK,1,2024-10-04_11h15.24.560,V3,2024.1.5,2024-10-04 11h15.31.543838 +0530
55,0,55,0,73.23291979,,,,,,,,,73.20783421,5,73.23291979,73.23291979,0.015026042,74.67545283,[0.4588888888888889],[-0.1411111111111111],[1],[0],[0],[1.453245082986541],['target'],,,,,AK,1,2024-10-04_11h15.24.560,V3,2024.1.5,2024-10-04 11h15.31.543838 +0530
56,0,56,0,74.72493067,,,,,,,,,74.67973287,10,74.72493067,74.72493067,0.030087917,75.99616704,[-0.46],[0.022222222222222223],[1],[0],[0],[1.2869422909570858],['target'],,,,,AK,1,2024-10-04_11h15.24.560,V3,2024.1.5,2024-10-04 11h15.31.543838 +0530
57,0,57,0,76.04337725,,,,,,,,,76.00051121,10,76.04337725,76.04337725,0.028920333,77.24267112,[0.18555555555555556],[0.24555555555555555],[1],[0],[0],[1.2138804160058498],['target'],,,,,AK,1,2024-10-04_11h15.24.560,V3,2024.1.5,2024-10-04 11h15.31.543838 +0530
58,0,58,0,77.28956854,,,,,,,,,77.24686829,10,77.28956854,77.28956854,0.028789125,78.90741983,[-0.11555555555555555],[-0.4411111111111111],[1],[0],[0],[1.6323631249833852],['target'],,,,,AK,1,2024-10-04_11h15.24.560,V3,2024.1.5,2024-10-04 11h15.31.543838 +0530
59,0,59,0,78.93665429,,,,,,,,,78.91174596,5,78.93665429,78.93665429,0.015216291,80.12676104,[-0.2733333333333333],[0.056666666666666664],[1],[0],[0],[1.2004157499177381],['target'],,,,,AK,1,2024-10-04_11h15.24.560,V3,2024.1.5,2024-10-04 11h15.31.543838 +0530
60,0,60,0,80.15614121,,,,,,,,,80.1309505,5,80.15614121,80.15614121,0.015356333,81.34502962,[0.11222222222222222],[-0.01888888888888889],[1],[0],[0],[1.1993262090254575],['target'],,,,,AK,1,2024-10-04_11h15.24.560,V3,2024.1.5,2024-10-04 11h15.31.543838 +0530
61,0,61,0,81.40459942,,,,,,,,,81.34925421,10,81.40459942,81.40459942,0.034639833,83.05341821,[0.10333333333333333],[0.45444444444444443],[1],[0],[0],[1.670160665991716],['target'],,,,,AK,1,2024-10-04_11h15.24.560,V3,2024.1.5,2024-10-04 11h15.31.543838 +0530
62,0,62,0,83.08295058,,,,,,,,,83.05780654,5,83.08295058,83.08295058,0.01538525,85.28710783,[0.11222222222222222],[-0.42444444444444446],[1],[0],[0],[2.214570250012912],['target'],,,,,AK,1,2024-10-04_11h15.24.560,V3,2024.1.5,2024-10-04 11h15.31.543838 +0530
63,0,63,0,85.31675775,,,,,,,,,85.29134804,5,85.31675775,85.31675775,0.015057416,87.41019263,[-0.2222222222222222],[0.29333333333333333],[1],[0],[0],[2.104424582910724],['target'],,,,,AK,1,2024-10-04_11h15.24.560,V3,2024.1.5,2024-10-04 11h15.31.543838 +0530
64,0,64,0,87.44035925,,,,,,,,,87.41439671,5,87.44035925,87.44035925,0.015183,89.14407454,[-0.17444444444444446],[-0.3877777777777778],[1],[0],[0],[1.7150992919923738],['target'],,,,,AK,1,2024-10-04_11h15.24.560,V3,2024.1.5,2024-10-04 11h15.31.543838 +0530
65,0,65,0,89.19114325,,,,,,,,,89.14826292,10,89.19114325,89.19114325,0.028862208,90.48839125,[0.15333333333333332],[0.07666666666666666],[1],[0],[0],[1.3117236660327762],['target'],,,,,AK,1,2024-10-04_11h15.24.560,V3,2024.1.5,2024-10-04 11h15.31.543838 +0530
66,0,66,0,90.52700558,,,,,,,,,90.49486183,5,90.52700558,90.52700558,0.020306334,91.57055325,[-0.06666666666666667],[-0.06777777777777778],[1],[0],[0],[1.0562467499403283],['target'],,,,,AK,1,2024-10-04_11h15.24.560,V3,2024.1.5,2024-10-04 11h15.31.543838 +0530
67,0,67,0,91.61753417,,,,,,,,,91.57487308,10,91.61753417,91.61753417,0.028597167,93.37070263,[0.43222222222222223],[0.22444444444444445],[1],[0],[0],[1.7678217079956084],['target'],,,,,AK,1,2024-10-04_11h15.24.560,V3,2024.1.5,2024-10-04 11h15.31.543838 +0530
68,0,68,0,93.41825075,,,,,,,,,93.37503708,10,93.41825075,93.41825075,0.029086542,94.63899262,[-0.28444444444444444],[0.45111111111111113],[1],[0],[0],[1.2354882089421153],['target'],,,,,AK,1,2024-10-04_11h15.24.560,V3,2024.1.5,2024-10-04 11h15.31.543838 +0530
69,0,69,0,94.68618921,,,,,,,,,94.64330029,10,94.68618921,94.68618921,0.028540542,95.70159442,[0.03888888888888889],[-0.2866666666666667],[1],[0],[0],[1.0303427079925314],['target'],,,,,AK,1,2024-10-04_11h15.24.560,V3,2024.1.5,2024-10-04 11h15.31.543838 +0530
70,0,70,0,95.73107192,,,,,,,,,95.70594892,5,95.73107192,95.73107192,0.015208792,96.58736987,[-0.035555555555555556],[-0.04555555555555556],[1],[0],[0],[0.8668803749606013],['target'],,,,,AK,1,2024-10-04_11h15.24.560,V3,2024.1.5,2024-10-04 11h15.31.543838 +0530
71,0,71,0,96.61673254,,,,,,,,,96.59158379,5,96.61673254,96.61673254,0.01501725,97.44392908,[-0.49777777777777776],[0.2677777777777778],[1],[0],[0],[0.8379460000433028],['target'],,,,,AK,1,2024-10-04_11h15.24.560,V3,2024.1.5,2024-10-04 11h15.31.543838 +0530
72,0,72,0,97.49082796,,,,,,,,,97.44815308,10,97.49082796,97.49082796,0.028476291,98.44817492,[-0.1388888888888889],[-0.1322222222222222],[1],[0],[0],[0.9720537909306586],['target'],,,,,AK,1,2024-10-04_11h15.24.560,V3,2024.1.5,2024-10-04 11h15.31.543838 +0530
73,0,73,0,98.49500879,,,,,,,,,98.45239575,10,98.49500879,98.49500879,0.028775792,100.4851114,[0.23555555555555555],[-0.4077777777777778],[1],[0],[0],[2.0045192079851404],['target'],,,,,AK,1,2024-10-04_11h15.24.560,V3,2024.1.5,2024-10-04 11h15.31.543838 +0530
74,0,74,0,100.5147403,,,,,,,,,100.4893964,5,100.5147403,100.5147403,0.015262709,101.8277704,[0.22666666666666666],[0.3988888888888889],[1],[0],[0],[1.3237700829049572],['target'],,,,,AK,1,2024-10-04_11h15.24.560,V3,2024.1.5,2024-10-04 11h15.31.543838 +0530
75,0,75,0,101.8591053,,,,,,,,,101.831918,5,101.8591053,101.8591053,0.015302666,102.945019,[0.4288888888888889],[0.3088888888888889],[1],[0],[0],[1.0982803750084713],['target'],,,,,AK,1,2024-10-04_11h15.24.560,V3,2024.1.5,2024-10-04 11h15.31.543838 +0530
76,0,76,0,102.9748977,,,,,,,,,102.9493009,5,102.9748977,102.9748977,0.015255791,103.8544845,[-0.28888888888888886],[0.32666666666666666],[1],[0],[0],[0.8905091660562903],['target'],,,,,AK,1,2024-10-04_11h15.24.560,V3,2024.1.5,2024-10-04 11h15.31.543838 +0530
77,0,77,0,103.9011069,,,,,,,,,103.8586657,10,103.9011069,103.9011069,0.028434083,105.006257,[-0.40444444444444444],[0.03666666666666667],[1],[0],[0],[1.1196334579726681],['target'],,,,,AK,1,2024-10-04_11h15.24.560,V3,2024.1.5,2024-10-04 11h15.31.543838 +0530
78,0,78,0,105.0380669,,,,,,,,,105.0107774,5,105.0380669,105.0380669,0.016542625,106.0231684,[0.3988888888888889],[0.3466666666666667],[1],[0],[0],[0.9962359999772161],['target'],,,,,AK,1,2024-10-04_11h15.24.560,V3,2024.1.5,2024-10-04 11h15.31.543838 +0530
79,0,79,0,106.0842241,,,,,,,,,106.0295924,10,106.0842241,106.0842241,0.037357375,107.8896914,[0.28444444444444444],[-0.4811111111111111],[1],[0],[0],[1.8238469590432942],['target'],,,,,AK,1,2024-10-04_11h15.24.560,V3,2024.1.5,2024-10-04 11h15.31.543838 +0530
80,0,80,0,107.9192192,,,,,,,,,107.8939825,5,107.9192192,107.9192192,0.015510334,108.937417,[0.28444444444444444],[0.12333333333333334],[1],[0],[0],[1.0286003340734169],['target'],,,,,AK,1,2024-10-04_11h15.24.560,V3,2024.1.5,2024-10-04 11h15.31.543838 +0530
81,0,81,0,108.9667956,,,,,,,,,108.9416183,5,108.9667956,108.9667956,0.014931083,109.9542615,[0.01888888888888889],[0.3466666666666667],[1],[0],[0],[0.9983236660482362],['target'],,,,,AK,1,2024-10-04_11h15.24.560,V3,2024.1.5,2024-10-04 11h15.31.543838 +0530
82,0,82,0,109.9834131,,,,,,,,,109.9584655,5,109.9834131,109.9834131,0.014967916,111.0939504,[-0.4],[-0.2877777777777778],[1],[0],[0],[1.121176959015429],['target'],,,,,AK,1,2024-10-04_11h15.24.560,V3,2024.1.5,2024-10-04 11h15.31.543838 +0530
83,0,83,0,111.1230867,,,,,,,,,111.0981547,5,111.1230867,111.1230867,0.015069834,112.2109743,[-0.16333333333333333],[-0.2833333333333333],[1],[0],[0],[1.0983658750774339],['target'],,,,,AK,1,2024-10-04_11h15.24.560,V3,2024.1.5,2024-10-04 11h15.31.543838 +0530
84,0,84,0,112.2399425,,,,,,,,,112.2151776,5,112.2399425,112.2399425,0.014912708,113.1711427,[-0.15444444444444444],[-0.37555555555555553],[1],[0],[0],[0.9416753749828786],['target'],,,,,AK,1,2024-10-04_11h15.24.560,V3,2024.1.5,2024-10-04 11h15.31.543838 +0530
85,0,85,0,113.2002037,,,,,,,,,113.1753175,5,113.2002037,113.2002037,0.014822833,114.1781921,[-0.4766666666666667],[-0.29777777777777775],[1],[0],[0],[0.988688625046052],['target'],,,,,AK,1,2024-10-04_11h15.24.560,V3,2024.1.5,2024-10-04 11h15.31.543838 +0530
86,0,86,0,114.2249269,,,,,,,,,114.1823663,10,114.2249269,114.2249269,0.028734917,115.8588207,[0.3655555555555556],[-0.24666666666666667],[1],[0],[0],[1.6482162920292467],['target'],,,,,AK,1,2024-10-04_11h15.24.560,V3,2024.1.5,2024-10-04 11h15.31.543838 +0530
87,0,87,0,115.9056,,,,,,,,,115.8630519,10,115.9056,115.9056,0.028478083,117.3920752,[-0.38555555555555554],[0.48333333333333334],[1],[0],[0],[1.5009539159946144],['target'],,,,,AK,1,2024-10-04_11h15.24.560,V3,2024.1.5,2024-10-04 11h15.31.543838 +0530
88,0,88,0,117.4237765,,,,,,,,,117.3965619,5,117.4237765,117.4237765,0.016938208,118.5285452,[0.13444444444444445],[-0.06666666666666667],[1],[0],[0],[1.1157598339486867],['target'],,,,,AK,1,2024-10-04_11h15.24.560,V3,2024.1.5,2024-10-04 11h15.31.543838 +0530
89,0,89,0,118.5750308,,,,,,,,,118.532738,10,118.5750308,118.5750308,0.028531958,119.6283717,[-0.4111111111111111],[-0.32222222222222224],[1],[0],[0],[1.0677510000532493],['target'],,,,,AK,1,2024-10-04_11h15.24.560,V3,2024.1.5,2024-10-04 11h15.31.543838 +0530
90,0,90,0,119.6749424,,,,,,,,,119.6326056,10,119.6749424,119.6749424,0.028321,120.8646056,[0.044444444444444446],[0.04888888888888889],[1],[0],[0],[1.2043076250702143],['target'],,,,,AK,1,2024-10-04_11h15.24.560,V3,2024.1.5,2024-10-04 11h15.31.543838 +0530
91,0,91,0,120.9112827,,,,,,,,,120.8688667,10,120.9112827,120.9112827,0.028583042,121.7960829,[-0.2877777777777778],[0.04555555555555556],[1],[0],[0],[0.8992863750318065],['target'],,,,,AK,1,2024-10-04_11h15.24.560,V3,2024.1.5,2024-10-04 11h15.31.543838 +0530
92,0,92,0,121.8437578,,,,,,,,,121.8003131,10,121.8437578,121.8437578,0.029554875,122.6756148,[-0.26666666666666666],[0.0],[1],[0],[0],[0.8463884170632809],['target'],,,,,AK,1,2024-10-04_11h15.24.560,V3,2024.1.5,2024-10-04 11h15.31.543838 +0530
93,0,93,0,122.7225438,,,,,,,,,122.6798356,10,122.7225438,122.7225438,0.028695083,123.42787,[-0.3377777777777778],[0.06555555555555556],[1],[0],[0],[0.7199502919102088],['target'],,,,,AK,1,2024-10-04_11h15.24.560,V3,2024.1.5,2024-10-04 11h15.31.543838 +0530
94,0,94,0,123.4571556,,,,,,,,,123.4320762,5,123.4571556,123.4571556,0.015270375,124.7891717,[-0.49444444444444446],[-0.30333333333333334],[1],[0],[0],[1.3423620410030708],['target'],,,,,AK,1,2024-10-04_11h15.24.560,V3,2024.1.5,2024-10-04 11h15.31.543838 +0530
95,0,95,0,124.836457,,,,,,,,,124.793402,10,124.836457,124.836457,0.029080833,126.1412752,[0.024444444444444446],[-0.052222222222222225],[1],[0],[0],[1.3194491670001298],['target'],,,,,AK,1,2024-10-04_11h15.24.560,V3,2024.1.5,2024-10-04 11h15.31.543838 +0530
96,0,96,0,126.1878966,,,,,,,,,126.1455058,10,126.1878966,126.1878966,0.02842925,127.998458,[0.3],[-0.4711111111111111],[1],[0],[0],[1.824896709062159],['target'],,,,,AK,1,2024-10-04_11h15.24.560,V3,2024.1.5,2024-10-04 11h15.31.543838 +0530
97,0,97,0,128.0275715,,,,,,,,,128.002667,5,128.0275715,128.0275715,0.015071792,129.2712916,[-0.17333333333333334],[0.3511111111111111],[1],[0],[0],[1.2540970409754664],['target'],,,,,AK,1,2024-10-04_11h15.24.560,V3,2024.1.5,2024-10-04 11h15.31.543838 +0530
98,0,98,0,129.3004491,,,,,,,,,129.2755012,5,129.3004491,129.3004491,0.014881875,130.2218944,[0.17777777777777778],[0.33111111111111113],[1],[0],[0],[0.9321699580177665],['target'],,,,,AK,1,2024-10-04_11h15.24.560,V3,2024.1.5,2024-10-04 11h15.31.543838 +0530
99,0,99,0,130.2687314,,,,,,,,,130.2261213,10,130.2687314,130.2687314,0.028634041,131.9904046,[-0.08666666666666667],[-0.41444444444444445],[1],[0],[0],[1.7363026660168543],['target'],,,,,AK,1,2024-10-04_11h15.24.560,V3,2024.1.5,2024-10-04 11h15.31.543838 +0530
100,0,100,0,132.0371489,,,,,,,,,131.9946533,10,132.0371489,132.0371489,0.028551833,133.7316939,[-0.17888888888888888],[0.013333333333333334],[1],[0],[0],[1.7090647920267656],['target'],,,,,AK,1,2024-10-04_11h15.24.560,V3,2024.1.5,2024-10-04 11h15.31.543838 +0530
101,0,101,0,133.7782618,,,,,,,,,133.7359174,10,133.7782618,133.7782618,0.028439875,135.114619,[0.19555555555555557],[-0.41888888888888887],[1],[0],[0],[1.3509067500708625],['target'],,,,,AK,1,2024-10-04_11h15.24.560,V3,2024.1.5,2024-10-04 11h15.31.543838 +0530
102,0,102,0,135.1436936,,,,,,,,,135.1188892,5,135.1436936,135.1436936,0.015117125,136.0389983,[0.07333333333333333],[0.28888888888888886],[1],[0],[0],[0.9053899579448625],['target'],,,,,AK,1,2024-10-04_11h15.24.560,V3,2024.1.5,2024-10-04 11h15.31.543838 +0530
103,0,103,0,136.0681378,,,,,,,,,136.0431646,5,136.0681378,136.0681378,0.014871792,137.0391258,[-0.07111111111111111],[0.3877777777777778],[1],[0],[0],[0.9817136670462787],['target'],,,,,AK,1,2024-10-04_11h15.24.560,V3,2024.1.5,2024-10-04 11h15.31.543838 +0530
104,0,104,0,137.0856282,,,,,,,,,137.0433388,10,137.0856282,137.0856282,0.02843025,138.3111889,[-0.46111111111111114],[-0.034444444444444444],[1],[0],[0],[1.239848249941133],['target'],,,,,AK,1,2024-10-04_11h15.24.560,V3,2024.1.5,2024-10-04 11h15.31.543838 +0530
105,0,105,0,138.3858368,,,,,,,,,138.3178309,10,138.3858368,138.3858368,0.046978041,140.1370633,[-0.1622222222222222],[-0.20222222222222222],[1],[0],[0],[1.7734144579153508],['target'],,,,,AK,1,2024-10-04_11h15.24.560,V3,2024.1.5,2024-10-04 11h15.31.543838 +0530
106,0,106,0,140.1670849,,,,,,,,,140.1415793,5,140.1670849,140.1670849,0.015573458,141.5950714,[0.21666666666666667],[-0.4166666666666667],[1],[0],[0],[1.4386004169937223],['target'],,,,,AK,1,2024-10-04_11h15.24.560,V3,2024.1.5,2024-10-04 11h15.31.543838 +0530
107,0,107,0,141.6418835,,,,,,,,,141.5992466,10,141.6418835,141.6418835,0.028688292,143.0727794,[0.4855555555555556],[-0.3688888888888889],[1],[0],[0],[1.4454198339954019],['target'],,,,,AK,1,2024-10-04_11h15.24.560,V3,2024.1.5,2024-10-04 11h15.31.543838 +0530
108,0,108,0,143.1022225,,,,,,,,,143.0769885,5,143.1022225,143.1022225,0.015408833,144.3624079,[-0.1622222222222222],[-0.1],[1],[0],[0],[1.270545959006995],['target'],,,,,AK,1,2024-10-04_11h15.24.560,V3,2024.1.5,2024-10-04 11h15.31.543838 +0530
109,0,109,0,144.5483531,,,,,,,,,144.3665683,10,144.5483531,144.5483531,0.16673325,146.3651136,[0.22111111111111112],[0.4122222222222222],[1],[0],[0],[1.8324291669996455],['target'],,,,,AK,1,2024-10-04_11h15.24.560,V3,2024.1.5,2024-10-04 11h15.31.543838 +0530
110,0,110,0,146.3942515,,,,,,,,,146.3693549,5,146.3942515,146.3942515,0.015139958,147.7623222,[-0.2411111111111111],[-0.47444444444444445],[1],[0],[0],[1.378404084010981],['target'],,,,,AK,1,2024-10-04_11h15.24.560,V3,2024.1.5,2024-10-04 11h15.31.543838 +0530
111,0,111,0,147.808955,,,,,,,,,147.7665053,10,147.808955,147.808955,0.028477667,149.0488442,[0.1322222222222222],[0.19666666666666666],[1],[0],[0],[1.2544664579909295],['target'],,,,,AK,1,2024-10-04_11h15.24.560,V3,2024.1.5,2024-10-04 11h15.31.543838 +0530
112,0,112,0,149.0779905,,,,,,,,,149.0531069,5,149.0779905,149.0779905,0.015259458,150.2558404,[-0.3877777777777778],[-0.4477777777777778],[1],[0],[0],[1.188129415968433],['target'],,,,,AK,1,2024-10-04_11h15.24.560,V3,2024.1.5,2024-10-04 11h15.31.543838 +0530
113,0,113,0,150.2852271,,,,,,,,,150.2600927,5,150.2852271,150.2852271,0.014918167,151.289231,[-0.18888888888888888],[-0.3411111111111111],[1],[0],[0],[1.014771791989915],['target'],,,,,AK,1,2024-10-04_11h15.24.560,V3,2024.1.5,2024-10-04 11h15.31.543838 +0530
114,0,114,0,151.3189258,,,,,,,,,151.2935456,5,151.3189258,151.3189258,0.015162333,152.2393769,[0.13],[0.2588888888888889],[1],[0],[0],[0.9313164999475703],['target'],,,,,AK,1,2024-10-04_11h15.24.560,V3,2024.1.5,2024-10-04 11h15.31.543838 +0530
115,0,115,0,152.2861363,,,,,,,,,152.243595,10,152.2861363,152.2861363,0.028465667,153.3250762,[-0.07333333333333333],[-0.09888888888888889],[1],[0],[0],[1.0536105419741943],['target'],,,,,AK,1,2024-10-04_11h15.24.560,V3,2024.1.5,2024-10-04 11h15.31.543838 +0530
116,0,116,0,153.3722594,,,,,,,,,153.3294143,10,153.3722594,153.3722594,0.028898792,154.7169327,[0.4411111111111111],[-0.23444444444444446],[1],[0],[0],[1.3592753750272095],['target'],,,,,AK,1,2024-10-04_11h15.24.560,V3,2024.1.5,2024-10-04 11h15.31.543838 +0530
117,0,117,0,154.7467366,,,,,,,,,154.7212132,5,154.7467366,154.7467366,0.015669333,155.9792661,[-0.09111111111111111],[-0.28555555555555556],[1],[0],[0],[1.2430423749610782],['target'],,,,,AK,1,2024-10-04_11h15.24.560,V3,2024.1.5,2024-10-04 11h15.31.543838 +0530
118,0,118,0,156.0260425,,,,,,,,,155.9834808,10,156.0260425,156.0260425,0.028638166,157.3390963,[0.37444444444444447],[-0.08],[1],[0],[0],[1.3276058749761432],['target'],,,,,AK,1,2024-10-04_11h15.24.560,V3,2024.1.5,2024-10-04 11h15.31.543838 +0530
119,0,119,0,157.3859162,,,,,,,,,157.3433213,10,157.3859162,157.3859162,0.028343917,158.591438,[0.2088888888888889],[-0.16666666666666666],[1],[0],[0],[1.220320750027895],['target'],,,,,AK,1,2024-10-04_11h15.24.560,V3,2024.1.5,2024-10-04 11h15.31.543838 +0530
120,0,120,0,158.6380073,,,,,,,,,158.5956499,10,158.6380073,158.6380073,0.028380125,159.7419499,[-0.2722222222222222],[-0.1],[1],[0],[0],[1.1178116250084713],['target'],,,,,AK,1,2024-10-04_11h15.24.560,V3,2024.1.5,2024-10-04 11h15.31.543838 +0530
121,0,121,0,159.7953309,,,,,,,,,159.7463801,10,159.7953309,159.7953309,0.033306958,161.1971519,[0.3488888888888889],[-0.19666666666666666],[1],[0],[0],[1.4179953340208158],['target'],,,,,AK,1,2024-10-04_11h15.24.560,V3,2024.1.5,2024-10-04 11h15.31.543838 +0530
122,0,122,0,161.2337458,,,,,,,,,161.202802,5,161.2337458,161.2337458,0.019204417,162.4302104,[0.4955555555555556],[-0.25222222222222224],[1],[0],[0],[1.2091685829218477],['target'],,,,,AK,1,2024-10-04_11h15.24.560,V3,2024.1.5,2024-10-04 11h15.31.543838 +0530
123,0,123,0,162.477223,,,,,,,,,162.4344109,10,162.477223,162.477223,0.028701833,163.7369083,[0.07111111111111111],[0.0],[1],[0],[0],[1.274398458073847],['target'],,,,,AK,1,2024-10-04_11h15.24.560,V3,2024.1.5,2024-10-04 11h15.31.543838 +0530
124,0,124,0,163.7857698,,,,,,,,,163.7415466,10,163.7857698,163.7857698,0.030013084,165.0205745,[0.12222222222222222],[0.2822222222222222],[1],[0],[0],[1.2497407500632107],['target'],,,,,AK,1,2024-10-04_11h15.24.560,V3,2024.1.5,2024-10-04 11h15.31.543838 +0530
125,0,125,0,165.0677676,,,,,,,,,165.0248196,10,165.0677676,165.0677676,0.028524625,166.3276287,[-0.18],[-0.08],[1],[0],[0],[1.2748376249801368],['target'],,,,,AK,1,2024-10-04_11h15.24.560,V3,2024.1.5,2024-10-04 11h15.31.543838 +0530
126,0,126,0,166.3746905,,,,,,,,,166.3319382,10,166.3746905,166.3746905,0.028585917,167.4998923,[0.03111111111111111],[0.2911111111111111],[1],[0],[0],[1.1400019580032676],['target'],,,,,AK,1,2024-10-04_11h15.24.560,V3,2024.1.5,2024-10-04 11h15.31.543838 +0530
127,0,127,0,167.5467875,,,,,,,,,167.5041544,10,167.5467875,167.5467875,0.028751042,169.0235416,[0.37666666666666665],[-0.2966666666666667],[1],[0],[0],[1.4912384580820799],['target'],,,,,AK,1,2024-10-04_11h15.24.560,V3,2024.1.5,2024-10-04 11h15.31.543838 +0530
128,0,128,0,169.0530027,,,,,,,,,169.0278026,5,169.0530027,169.0530027,0.015236625,170.0800937,[-0.49],[0.07],[1],[0],[0],[1.0376756249461323],['target'],,,,,AK,1,2024-10-04_11h15.24.560,V3,2024.1.5,2024-10-04 11h15.31.543838 +0530
129,0,129,0,170.1098504,,,,,,,,,170.0842668,5,170.1098504,170.1098504,0.014869875,171.146591,[-0.49444444444444446],[0.23],[1],[0],[0],[1.048068542033434],['target'],,,,,AK,1,2024-10-04_11h15.24.560,V3,2024.1.5,2024-10-04 11h15.31.543838 +0530
130,0,130,0,171.1759288,,,,,,,,,171.1507841,5,171.1759288,171.1759288,0.014947083,172.5562845,[-0.12222222222222222],[-0.16],[1],[0],[0],[1.391198750003241],['target'],,,,,AK,1,2024-10-04_11h15.24.560,V3,2024.1.5,2024-10-04 11h15.31.543838 +0530
131,0,131,0,172.6032799,,,,,,,,,172.5605281,10,172.6032799,172.6032799,0.028641,173.457023,[-0.23],[-0.17222222222222222],[1],[0],[0],[0.8685094169341028],['target'],,,,,AK,1,2024-10-04_11h15.24.560,V3,2024.1.5,2024-10-04 11h15.31.543838 +0530
132,0,132,0,173.4868287,,,,,,,,,173.4614732,5,173.4868287,173.4868287,0.015519,174.5732792,[0.4088888888888889],[0.01888888888888889],[1],[0],[0],[1.0969571670284495],['target'],,,,,AK,1,2024-10-04_11h15.24.560,V3,2024.1.5,2024-10-04 11h15.31.543838 +0530
133,0,133,0,174.6029261,,,,,,,,,174.5775184,5,174.6029261,174.6029261,0.015227375,175.539554,[-0.3877777777777778],[0.07777777777777778],[1],[0],[0],[0.9474918330088258],['target'],,,,,AK,1,2024-10-04_11h15.24.560,V3,2024.1.5,2024-10-04 11h15.31.543838 +0530
134,0,134,0,175.5865065,,,,,,,,,175.5437843,10,175.5865065,175.5865065,0.0285115,176.7454355,[0.22111111111111112],[-0.0022222222222222222],[1],[0],[0],[1.1736704999348149],['target'],,,,,AK,1,2024-10-04_11h15.24.560,V3,2024.1.5,2024-10-04 11h15.31.543838 +0530
135,0,135,0,176.7746694,,,,,,,,,176.7496725,5,176.7746694,176.7746694,0.015011667,177.8632078,[-0.17777777777777778],[0.05555555555555555],[1],[0],[0],[1.0991498749936],['target'],,,,,AK,1,2024-10-04_11h15.24.560,V3,2024.1.5,2024-10-04 11h15.31.543838 +0530
136,0,136,0,177.9099233,,,,,,,,,177.8674037,10,177.9099233,177.9099233,0.028474542,178.8514899,[-0.47333333333333333],[-0.17],[1],[0],[0],[0.9562038750154898],['target'],,,,,AK,1,2024-10-04_11h15.24.560,V3,2024.1.5,2024-10-04 11h15.31.543838 +0530
137,0,137,0,178.8807242,,,,,,,,,178.855691,5,178.8807242,178.8807242,0.015103042,180.1677247,[0.36333333333333334],[0.4911111111111111],[1],[0],[0],[1.2974558749701828],['target'],,,,,AK,1,2024-10-04_11h15.24.560,V3,2024.1.5,2024-10-04 11h15.31.543838 +0530
138,0,138,0,180.2193705,,,,,,,,,180.1722545,10,180.2193705,180.2193705,0.031243083,181.9441143,[0.37555555555555553],[0.4922222222222222],[1],[0],[0],[1.7412902080686763],['target'],,,,,AK,1,2024-10-04_11h15.24.560,V3,2024.1.5,2024-10-04 11h15.31.543838 +0530
139,0,139,0,181.9741839,,,,,,,,,181.9483773,5,181.9741839,181.9741839,0.015537958,183.2738058,[0.21444444444444444],[-0.24666666666666667],[1],[0],[0],[1.3105402499204502],['target'],,,,,AK,1,2024-10-04_11h15.24.560,V3,2024.1.5,2024-10-04 11h15.31.543838 +0530
140,0,140,0,183.3032202,,,,,,,,,183.2780628,5,183.3032202,183.3032202,0.014854083,184.8400844,[-0.3877777777777778],[0.25333333333333335],[1],[0],[0],[1.5477736670291051],['target'],,,,,AK,1,2024-10-04_11h15.24.560,V3,2024.1.5,2024-10-04 11h15.31.543838 +0530
141,0,141,0,184.869744,,,,,,,,,184.844328,5,184.869744,184.869744,0.015421459,186.7635763,[-0.034444444444444444],[-0.3788888888888889],[1],[0],[0],[1.9044658750062808],['target'],,,,,AK,1,2024-10-04_11h15.24.560,V3,2024.1.5,2024-10-04 11h15.31.543838 +0530
142,0,142,0,186.8108076,,,,,,,,,186.7678034,10,186.8108076,186.8108076,0.028820542,188.2201862,[0.45666666666666667],[0.2222222222222222],[1],[0],[0],[1.424204417038709],[],,,,,AK,1,2024-10-04_11h15.24.560,V3,2024.1.5,2024-10-04 11h15.31.543838 +0530
143,0,143,0,188.2494536,,,,,,,,,188.2244206,5,188.2494536,188.2494536,0.015040333,189.9640537,[0.35333333333333333],[0.42],[1],[0],[0],[1.7252192499581724],['target'],,,,,AK,1,2024-10-04_11h15.24.560,V3,2024.1.5,2024-10-04 11h15.31.543838 +0530
144,0,144,0,189.9932597,,,,,,,,,189.9682492,5,189.9932597,189.9932597,0.014838375,191.4074938,[-0.20222222222222222],[0.24333333333333335],[1],[0],[0],[1.4248805840034038],['target'],,,,,AK,1,2024-10-04_11h15.24.560,V3,2024.1.5,2024-10-04 11h15.31.543838 +0530
145,0,145,0,191.4546993,,,,,,,,,191.4117837,10,191.4546993,191.4546993,0.028610958,192.4756575,[-0.3888888888888889],[-0.28],[1],[0],[0],[1.035850957967341],['target'],,,,,AK,1,2024-10-04_11h15.24.560,V3,2024.1.5,2024-10-04 11h15.31.543838 +0530
146,0,146,0,192.5223905,,,,,,,,,192.4798756,10,192.5223905,192.5223905,0.028543958,193.7126552,[0.013333333333333334],[0.1511111111111111],[1],[0],[0],[1.2047699579270557],['target'],,,,,AK,1,2024-10-04_11h15.24.560,V3,2024.1.5,2024-10-04 11h15.31.543838 +0530
147,0,147,0,193.7417121,,,,,,,,,193.7168513,5,193.7417121,193.7417121,0.015145917,195.2410144,[0.14],[-0.1388888888888889],[1],[0],[0],[1.5096367920050398],['target'],,,,,AK,1,2024-10-04_11h15.24.560,V3,2024.1.5,2024-10-04 11h15.31.543838 +0530
148,0,148,0,195.2877552,,,,,,,,,195.2452548,10,195.2877552,195.2877552,0.028449292,198.3477707,[0.4077777777777778],[0.2788888888888889],[1],[0],[0],[3.0745824580080807],[],,,,,AK,1,2024-10-04_11h15.24.560,V3,2024.1.5,2024-10-04 11h15.31.543838 +0530
149,0,149,0,198.3776584,,,,,,,,,198.3520256,5,198.3776584,198.3776584,0.01565825,201.3241495,[-0.3933333333333333],[-0.45555555555555555],[1],[0],[0],[2.956860375008546],['target'],,,,,AK,1,2024-10-04_11h15.24.560,V3,2024.1.5,2024-10-04 11h15.31.543838 +0530
150,0,150,0,201.3539697,,,,,,,,,201.3284075,5,201.3539697,201.3539697,0.014804542,202.3143267,[-0.20777777777777778],[-0.21444444444444444],[1],[0],[0],[0.9717447090661153],['target'],,,,,AK,1,2024-10-04_11h15.24.560,V3,2024.1.5,2024-10-04 11h15.31.543838 +0530
151,0,151,0,202.3611628,,,,,,,,,202.318541,10,202.3611628,202.3611628,0.028378292,204.5179097,[0.11555555555555555],[-0.035555555555555556],[1],[0],[0],[2.1716117080068216],['target'],,,,,AK,1,2024-10-04_11h15.24.560,V3,2024.1.5,2024-10-04 11h15.31.543838 +0530
152,0,152,0,204.5649471,,,,,,,,,204.5220987,10,204.5649471,204.5649471,0.028686917,205.9409712,[-0.19777777777777777],[-0.13666666666666666],[1],[0],[0],[1.3908034999622032],['target'],,,,,AK,1,2024-10-04_11h15.24.560,V3,2024.1.5,2024-10-04 11h15.31.543838 +0530
153,0,153,0,205.987751,,,,,,,,,205.9451953,10,205.987751,205.987751,0.028431208,207.367648,[0.14444444444444443],[-0.11444444444444445],[1],[0],[0],[1.3946218750206754],['target'],,,,,AK,1,2024-10-04_11h15.24.560,V3,2024.1.5,2024-10-04 11h15.31.543838 +0530
154,0,154,0,207.4142355,,,,,,,,,207.3718622,10,207.4142355,207.4142355,0.028307416,208.5522115,[0.4666666666666667],[0.4488888888888889],[1],[0],[0],[1.1526625839760527],['target'],,,,,AK,1,2024-10-04_11h15.24.560,V3,2024.1.5,2024-10-04 11h15.31.543838 +0530
155,0,155,0,208.6000457,,,,,,,,,208.5564822,10,208.6000457,208.6000457,0.029216917,209.7983797,[-0.34],[-0.2911111111111111],[1],[0],[0],[1.2133296669926494],['target'],,,,,AK,1,2024-10-04_11h15.24.560,V3,2024.1.5,2024-10-04 11h15.31.543838 +0530
156,0,156,0,209.8273444,,,,,,,,,209.8025963,5,209.8273444,209.8273444,0.015087209,210.7519076,[-0.3055555555555556],[0.10888888888888888],[1],[0],[0],[0.9345955000026152],['target'],,,,,AK,1,2024-10-04_11h15.24.560,V3,2024.1.5,2024-10-04 11h15.31.543838 +0530
157,0,157,0,210.8015189,,,,,,,,,210.7598349,5,210.8015189,210.8015189,0.026491625,212.3079356,[0.47888888888888886],[-0.3477777777777778],[1],[0],[0],[1.523097249912098],['target'],,,,,AK,1,2024-10-04_11h15.24.560,V3,2024.1.5,2024-10-04 11h15.31.543838 +0530
158,0,158,0,212.3374921,,,,,,,,,212.3121916,5,212.3374921,212.3374921,0.0152575,213.6980429,[0.0044444444444444444],[-0.3711111111111111],[1],[0],[0],[1.3712262079352513],['target'],,,,,AK,1,2024-10-04_11h15.24.560,V3,2024.1.5,2024-10-04 11h15.31.543838 +0530
159,0,159,0,213.7452431,,,,,,,,,213.7023672,10,213.7452431,213.7452431,0.028652625,214.7678057,[0.11222222222222222],[0.3055555555555556],[1],[0],[0],[1.0374098749598488],['target'],,,,,AK,1,2024-10-04_11h15.24.560,V3,2024.1.5,2024-10-04 11h15.31.543838 +0530
160,0,160,0,214.7969504,,,,,,,,,214.7719969,5,214.7969504,214.7969504,0.014927542,215.7809043,[0.2722222222222222],[-0.04111111111111111],[1],[0],[0],[0.9946217919932678],['target'],,,,,AK,1,2024-10-04_11h15.24.560,V3,2024.1.5,2024-10-04 11h15.31.543838 +0530
161,0,161,0,215.8280323,,,,,,,,,215.7851911,10,215.8280323,215.8280323,0.028697334,216.7086641,[-0.4066666666666667],[0.11777777777777777],[1],[0],[0],[0.8954269579844549],['target'],,,,,AK,1,2024-10-04_11h15.24.560,V3,2024.1.5,2024-10-04 11h15.31.543838 +0530
162,0,162,0,216.7555067,,,,,,,,,216.7128758,10,216.7555067,216.7555067,0.028613875,217.8284649,[0.21333333333333335],[0.4622222222222222],[1],[0],[0],[1.087592541007325],['target'],,,,,AK,1,2024-10-04_11h15.24.560,V3,2024.1.5,2024-10-04 11h15.31.543838 +0530
163,0,163,0,217.8754,,,,,,,,,217.8326741,10,217.8754,217.8754,0.028490708,218.9456509,[0.043333333333333335],[-0.1322222222222222],[1],[0],[0],[1.085056666051969],['target'],,,,,AK,1,2024-10-04_11h15.24.560,V3,2024.1.5,2024-10-04 11h15.31.543838 +0530
164,0,164,0,218.9926769,,,,,,,,,218.9499288,10,218.9926769,218.9926769,0.02868675,220.5553102,[0.10888888888888888],[-0.4222222222222222],[1],[0],[0],[1.5773691670037806],['target'],,,,,AK,1,2024-10-04_11h15.24.560,V3,2024.1.5,2024-10-04 11h15.31.543838 +0530
165,0,165,0,220.5844817,,,,,,,,,220.5595135,5,220.5844817,220.5844817,0.014991959,221.498331,[-0.29333333333333333],[0.2577777777777778],[1],[0],[0],[0.9244336250703782],['target'],,,,,AK,1,2024-10-04_11h15.24.560,V3,2024.1.5,2024-10-04 11h15.31.543838 +0530
166,0,166,0,221.5443679,,,,,,,,,221.5024776,10,221.5443679,221.5443679,0.028012334,222.6322395,[0.4911111111111111],[0.42333333333333334],[1],[0],[0],[1.1023634999291971],['target'],,,,,AK,1,2024-10-04_11h15.24.560,V3,2024.1.5,2024-10-04 11h15.31.543838 +0530
167,0,167,0,222.6789348,,,,,,,,,222.6364594,10,222.6789348,222.6789348,0.02860425,223.897852,[0.4288888888888889],[-0.1622222222222222],[1],[0],[0],[1.2334015829255804],['target'],,,,,AK,1,2024-10-04_11h15.24.560,V3,2024.1.5,2024-10-04 11h15.31.543838 +0530
168,0,168,0,223.9448077,,,,,,,,,223.9020406,10,223.9448077,223.9448077,0.028585459,225.4460752,[-0.46444444444444444],[-0.37444444444444447],[1],[0],[0],[1.5160422920016572],['target'],,,,,AK,1,2024-10-04_11h15.24.560,V3,2024.1.5,2024-10-04 11h15.31.543838 +0530
169,0,169,0,225.4753798,,,,,,,,,225.4503121,5,225.4753798,225.4753798,0.015236583,227.2986497,[0.09888888888888889],[-0.36333333333333334],[1],[0],[0],[1.8336177080636844],['target'],,,,,AK,1,2024-10-04_11h15.24.560,V3,2024.1.5,2024-10-04 11h15.31.543838 +0530
170,0,170,0,227.3279467,,,,,,,,,227.3028955,5,227.3279467,227.3279467,0.015031417,228.7751518,[0.4955555555555556],[-0.11666666666666667],[1],[0],[0],[1.4578857499873266],['target'],,,,,AK,1,2024-10-04_11h15.24.560,V3,2024.1.5,2024-10-04 11h15.31.543838 +0530
171,0,171,0,228.8047426,,,,,,,,,228.7794061,5,228.8047426,228.8047426,0.01472525,230.2079903,[0.43777777777777777],[-0.22444444444444445],[1],[0],[0],[1.4144730829866603],[],,,,,AK,1,2024-10-04_11h15.24.560,V3,2024.1.5,2024-10-04 11h15.31.543838 +0530
172,0,172,0,230.254908,,,,,,,,,230.212201,10,230.254908,230.254908,0.02852425,232.318782,[0.42444444444444446],[-0.08555555555555555],[1],[0],[0],[2.0786485000280663],['target'],,,,,AK,1,2024-10-04_11h15.24.560,V3,2024.1.5,2024-10-04 11h15.31.543838 +0530
173,0,173,0,232.3658063,,,,,,,,,232.3230622,10,232.3658063,232.3658063,0.028773791,233.2820064,[-0.11222222222222222],[-0.024444444444444446],[1],[0],[0],[0.9308579169446602],['target'],,,,,AK,1,2024-10-04_11h15.24.560,V3,2024.1.5,2024-10-04 11h15.31.543838 +0530
174,0,174,0,233.328888,,,,,,,,,233.2862147,10,233.328888,233.328888,0.028550792,234.2961214,[-0.24222222222222223],[0.021111111111111112],[1],[0],[0],[0.9819813749054447],['target'],,,,,AK,1,2024-10-04_11h15.24.560,V3,2024.1.5,2024-10-04 11h15.31.543838 +0530
175,0,175,0,234.3427829,,,,,,,,,234.300375,10,234.3427829,234.3427829,0.028595875,235.4326688,[0.3211111111111111],[-0.2688888888888889],[1],[0],[0],[1.1043595409719273],['target'],,,,,AK,1,2024-10-04_11h15.24.560,V3,2024.1.5,2024-10-04 11h15.31.543838 +0530
176,0,176,0,235.4800615,,,,,,,,,235.4369031,10,235.4800615,235.4800615,0.028573917,236.3491582,[-0.09222222222222222],[0.32555555555555554],[1],[0],[0],[0.8843061251100153],['target'],,,,,AK,1,2024-10-04_11h15.24.560,V3,2024.1.5,2024-10-04 11h15.31.543838 +0530
177,0,177,0,236.3783029,,,,,,,,,236.3533615,5,236.3783029,236.3783029,0.015196208,237.2485997,[-0.3277777777777778],[0.15444444444444444],[1],[0],[0],[0.8806873329449445],['target'],,,,,AK,1,2024-10-04_11h15.24.560,V3,2024.1.5,2024-10-04 11h15.31.543838 +0530
178,0,178,0,237.2958341,,,,,,,,,237.2528018,10,237.2958341,237.2958341,0.028822083,238.2651968,[-0.4577777777777778],[0.14],[1],[0],[0],[0.9841125829843804],['target'],,,,,AK,1,2024-10-04_11h15.24.560,V3,2024.1.5,2024-10-04 11h15.31.543838 +0530
179,0,179,0,238.3134753,,,,,,,,,238.2694061,10,238.3134753,238.3134753,0.0301,239.4489377,[-0.5066666666666667],[0.3055555555555556],[1],[0],[0],[1.1500242500333115],['target'],,,,,AK,1,2024-10-04_11h15.24.560,V3,2024.1.5,2024-10-04 11h15.31.543838 +0530
180,0,180,0,239.4957406,,,,,,,,,239.4531626,10,239.4957406,239.4957406,0.028419166,240.692366,[-0.06777777777777778],[0.37777777777777777],[1],[0],[0],[1.2114192919107154],['target'],,,,,AK,1,2024-10-04_11h15.24.560,V3,2024.1.5,2024-10-04 11h15.31.543838 +0530
181,0,181,0,240.739258,,,,,,,,,240.6966334,10,240.739258,240.739258,0.028547042,242.3794914,[0.39444444444444443],[-0.45555555555555555],[1],[0],[0],[1.654550208011642],['target'],,,,,AK,1,2024-10-04_11h15.24.560,V3,2024.1.5,2024-10-04 11h15.31.543838 +0530
182,0,182,0,242.4264344,,,,,,,,,242.383776,10,242.4264344,242.4264344,0.028563042,243.6492611,[0.23333333333333334],[-0.18555555555555556],[1],[0],[0],[1.2375658750534058],['target'],,,,,AK,1,2024-10-04_11h15.24.560,V3,2024.1.5,2024-10-04 11h15.31.543838 +0530
183,0,183,0,243.6783634,,,,,,,,,243.6534598,5,243.6783634,243.6783634,0.01511175,244.7588296,[0.27444444444444444],[0.4266666666666667],[1],[0],[0],[1.0909092080546543],['target'],,,,,AK,1,2024-10-04_11h15.24.560,V3,2024.1.5,2024-10-04 11h15.31.543838 +0530
184,0,184,0,244.8055321,,,,,,,,,244.763032,10,244.8055321,244.8055321,0.028553709,246.2068522,[-0.27],[-0.2922222222222222],[1],[0],[0],[1.4158340829890221],['target'],,,,,AK,1,2024-10-04_11h15.24.560,V3,2024.1.5,2024-10-04 11h15.31.543838 +0530
185,0,185,0,246.2402804,,,,,,,,,246.2111798,5,246.2402804,246.2402804,0.017784417,247.4762214,[0.2222222222222222],[0.32],[1],[0],[0],[1.2478729999857023],['target'],,,,,AK,1,2024-10-04_11h15.24.560,V3,2024.1.5,2024-10-04 11h15.31.543838 +0530
186,0,186,0,247.5057681,,,,,,,,,247.4805112,5,247.5057681,247.5057681,0.014942625,248.6659093,[0.3488888888888889],[-0.22],[1],[0],[0],[1.1711098329396918],['target'],,,,,AK,1,2024-10-04_11h15.24.560,V3,2024.1.5,2024-10-04 11h15.31.543838 +0530
187,0,187,0,248.69493,,,,,,,,,248.6701011,5,248.69493,248.69493,0.014892041,249.8086182,[-0.44333333333333336],[0.27555555555555555],[1],[0],[0],[1.1242486250121146],['target'],,,,,AK,1,2024-10-04_11h15.24.560,V3,2024.1.5,2024-10-04 11h15.31.543838 +0530
188,0,188,0,249.8379174,,,,,,,,,249.8128563,5,249.8379174,249.8379174,0.014916375,250.9249918,[-0.2922222222222222],[-0.3011111111111111],[1],[0],[0],[1.0978672499768436],['target'],,,,,AK,1,2024-10-04_11h15.24.560,V3,2024.1.5,2024-10-04 11h15.31.543838 +0530
189,0,189,0,250.9716854,,,,,,,,,250.9291726,10,250.9716854,250.9716854,0.028149375,252.0267818,[-0.33444444444444443],[0.3377777777777778],[1],[0],[0],[1.0700031250016764],['target'],,,,,AK,1,2024-10-04_11h15.24.560,V3,2024.1.5,2024-10-04 11h15.31.543838 +0530
190,0,190,0,252.0560279,,,,,,,,,252.0310224,5,252.0560279,252.0560279,0.015101208,253.0927729,[-0.32666666666666666],[0.4111111111111111],[1],[0],[0],[1.0471780420048162],['target'],,,,,AK,1,2024-10-04_11h15.24.560,V3,2024.1.5,2024-10-04 11h15.31.543838 +0530
191,0,191,0,253.1395488,,,,,,,,,253.0969571,10,253.1395488,253.1395488,0.028641583,254.135709,[-0.4033333333333333],[0.17222222222222222],[1],[0],[0],[1.0107233339222148],['target'],,,,,AK,1,2024-10-04_11h15.24.560,V3,2024.1.5,2024-10-04 11h15.31.543838 +0530
192,0,192,0,254.1822757,,,,,,,,,254.1399517,10,254.1822757,254.1822757,0.028456791,255.14863,[-0.32666666666666666],[0.35333333333333333],[1],[0],[0],[0.9808590420288965],['target'],,,,,AK,1,2024-10-04_11h15.24.560,V3,2024.1.5,2024-10-04 11h15.31.543838 +0530
193,0,193,0,255.1957936,,,,,,,,,255.1528384,10,255.1957936,255.1957936,0.028789,256.1092028,[0.25],[0.2777777777777778],[1],[0],[0],[0.9281351669924334],['target'],,,,,AK,1,2024-10-04_11h15.24.560,V3,2024.1.5,2024-10-04 11h15.31.543838 +0530
194,0,194,0,256.1559444,,,,,,,,,256.1134284,10,256.1559444,256.1559444,0.028464875,257.3964266,[-0.3788888888888889],[-0.05333333333333334],[1],[0],[0],[1.2551658750744537],['target'],,,,,AK,1,2024-10-04_11h15.24.560,V3,2024.1.5,2024-10-04 11h15.31.543838 +0530
195,0,195,0,257.4432909,,,,,,,,,257.4007087,10,257.4432909,257.4432909,0.028459666,260.0929471,[-0.43555555555555553],[-0.3233333333333333],[1],[0],[0],[2.6643679999979213],['target'],,,,,AK,1,2024-10-04_11h15.24.560,V3,2024.1.5,2024-10-04 11h15.31.543838 +0530
196,0,196,0,260.1398555,,,,,,,,,260.0971867,10,260.1398555,260.1398555,0.028670042,261.219637,[-0.23777777777777778],[0.3244444444444444],[1],[0],[0],[1.0943974580150098],['target'],,,,,AK,1,2024-10-04_11h15.24.560,V3,2024.1.5,2024-10-04 11h15.31.543838 +0530
197,0,197,0,261.2489051,,,,,,,,,261.2238937,5,261.2489051,261.2489051,0.01506825,262.5829285,[0.4588888888888889],[0.29888888888888887],[1],[0],[0],[1.3446023750584573],['target'],,,,,AK,1,2024-10-04_11h15.24.560,V3,2024.1.5,2024-10-04 11h15.31.543838 +0530
198,0,198,0,262.6121835,,,,,,,,,262.5871105,5,262.6121835,262.6121835,0.014897542,263.5493577,[0.06222222222222222],[0.15],[1],[0],[0],[0.9479634169256315],['target'],,,,,AK,1,2024-10-04_11h15.24.560,V3,2024.1.5,2024-10-04 11h15.31.543838 +0530
199,0,199,0,263.5783693,,,,,,,,,263.5535362,5,263.5783693,263.5783693,0.014926334,264.3595537,[0.1388888888888889],[0.31555555555555553],[1],[0],[0],[0.7917276669759303],['target'],,,,,AK,1,2024-10-04_11h15.24.560,V3,2024.1.5,2024-10-04 11h15.31.543838 +0530
,,,,,,,,,,,,,,,,,,,,,,,,,,264.3628854,264.3729889,267.3715561,267.3614583,AK,1,2024-10-04_11h15.24.560,V3,2024.1.5,2024-10-04 11h15.31.543838 +0530