trials.thisRepN,trials.thisTrialN,trials.thisN,trials.thisIndex,thisRow.t,notes,ins.started,text.started,key_resp.started,ins.stopped,key_resp.keys,key_resp.rt,key_resp.duration,trial.started,num_distr,Fixation.started,target.started,mouse.started,trial.stopped,mouse.x,mouse.y,mouse.leftButton,mouse.midButton,mouse.rightButton,mouse.time,mouse.clicked_name,thanks.started,text_2.started,thanks.stopped,participant,session,date,expName,psychopyVersion,expStart
,,,,,,0.051363583,0.087032,0.087032,1.204948416,space,1.082648666,None,,,,,,,,,,,,,,,,,AN,1,2024-10-04_11h21.46.712,V3,2024.1.5,2024-10-04 11h21.52.492013 +0530
0,0,0,0,1.295179375,,,,,,,,,1.210374375,10,1.295179375,1.295179375,0.042220334,2.129876416,[0.13],[0.2777777777777778],[1],[0],[0],[0.8823234579758719],['target'],,,,AN,1,2024-10-04_11h21.46.712,V3,2024.1.5,2024-10-04 11h21.52.492013 +0530
1,0,1,0,2.160549875,,,,,,,,,2.135320083,5,2.160549875,2.160549875,0.015678542,3.048012666,[0.16555555555555557],[-0.06888888888888889],[1],[0],[0],[0.8976237500319257],['target'],,,,AN,1,2024-10-04_11h21.46.712,V3,2024.1.5,2024-10-04 11h21.52.492013 +0530
2,0,2,0,3.076769291,,,,,,,,,3.052070541,5,3.076769291,3.076769291,0.015186,4.356240416,[-0.41333333333333333],[0.29555555555555557],[1],[0],[0],[1.2895417499821633],['target'],,,,AN,1,2024-10-04_11h21.46.712,V3,2024.1.5,2024-10-04 11h21.52.492013 +0530
3,0,3,0,4.385334916,,,,,,,,,4.360385541,5,4.385334916,4.385334916,0.015364833,5.82939525,[0.06444444444444444],[-0.43555555555555553],[1],[0],[0],[1.454271416994743],['target'],,,,AN,1,2024-10-04_11h21.46.712,V3,2024.1.5,2024-10-04 11h21.52.492013 +0530
4,0,4,0,5.858571958,,,,,,,,,5.833468666,5,5.858571958,5.858571958,0.015055917,6.823346583,[0.29],[0.07333333333333333],[1],[0],[0],[0.975366041995585],['target'],,,,AN,1,2024-10-04_11h21.46.712,V3,2024.1.5,2024-10-04 11h21.52.492013 +0530
5,0,5,0,6.872304208,,,,,,,,,6.827467125,10,6.872304208,6.872304208,0.028917459,8.545621875,[0.46555555555555556],[-0.23666666666666666],[1],[0],[0],[1.6898603340378031],['target'],,,,AN,1,2024-10-04_11h21.46.712,V3,2024.1.5,2024-10-04 11h21.52.492013 +0530
6,0,6,0,8.592409583,,,,,,,,,8.54970675,10,8.592409583,8.592409583,0.028911417,9.865604791,[0.18222222222222223],[0.11555555555555555],[1],[0],[0],[1.287536958931014],['target'],,,,AN,1,2024-10-04_11h21.46.712,V3,2024.1.5,2024-10-04 11h21.52.492013 +0530
7,0,7,0,9.918673875,,,,,,,,,9.869868583,10,9.918673875,9.918673875,0.030927708,11.50703867,[0.45222222222222225],[-0.18888888888888888],[1],[0],[0],[1.6068969160551205],['target'],,,,AN,1,2024-10-04_11h21.46.712,V3,2024.1.5,2024-10-04 11h21.52.492013 +0530
8,0,8,0,11.55349583,,,,,,,,,11.51119483,10,11.55349583,11.55349583,0.028532875,12.97688483,[-0.38555555555555554],[0.025555555555555557],[1],[0],[0],[1.4376744169276208],['target'],,,,AN,1,2024-10-04_11h21.46.712,V3,2024.1.5,2024-10-04 11h21.52.492013 +0530
9,0,9,0,13.024521,,,,,,,,,12.98120846,10,13.024521,13.024521,0.029262792,14.69699971,[0.4011111111111111],[-0.47555555555555556],[1],[0],[0],[1.6870430420385674],['target'],,,,AN,1,2024-10-04_11h21.46.712,V3,2024.1.5,2024-10-04 11h21.52.492013 +0530
10,0,10,0,14.74363325,,,,,,,,,14.70114958,10,14.74363325,14.74363325,0.028848417,16.24728413,[0.4122222222222222],[-0.32555555555555554],[1],[0],[0],[1.5178918750025332],['target'],,,,AN,1,2024-10-04_11h21.46.712,V3,2024.1.5,2024-10-04 11h21.52.492013 +0530
11,0,11,0,16.29402971,,,,,,,,,16.25139371,10,16.29402971,16.29402971,0.028931541,17.44397521,[-0.31333333333333335],[-0.2866666666666667],[1],[0],[0],[1.1641899580135942],['target'],,,,AN,1,2024-10-04_11h21.46.712,V3,2024.1.5,2024-10-04 11h21.52.492013 +0530
12,0,12,0,17.47410063,,,,,,,,,17.44826871,5,17.47410063,17.47410063,0.015730166,18.65868163,[-0.46],[-0.04555555555555556],[1],[0],[0],[1.1951790420571342],['target'],,,,AN,1,2024-10-04_11h21.46.712,V3,2024.1.5,2024-10-04 11h21.52.492013 +0530
13,0,13,0,18.70759875,,,,,,,,,18.66319404,10,18.70759875,18.70759875,0.029641167,19.50490633,[-0.37777777777777777],[0.3411111111111111],[1],[0],[0],[0.8125858749262989],['target'],,,,AN,1,2024-10-04_11h21.46.712,V3,2024.1.5,2024-10-04 11h21.52.492013 +0530
14,0,14,0,19.5522995,,,,,,,,,19.50906896,10,19.5522995,19.5522995,0.029239875,20.60999329,[0.06888888888888889],[0.21],[1],[0],[0],[1.0723099999595433],['target'],,,,AN,1,2024-10-04_11h21.46.712,V3,2024.1.5,2024-10-04 11h21.52.492013 +0530
15,0,15,0,20.63940771,,,,,,,,,20.61409633,5,20.63940771,20.63940771,0.015579917,21.46389142,[0.18777777777777777],[0.18666666666666668],[1],[0],[0],[0.8348193750716746],['target'],,,,AN,1,2024-10-04_11h21.46.712,V3,2024.1.5,2024-10-04 11h21.52.492013 +0530
16,0,16,0,21.51071533,,,,,,,,,21.46801671,10,21.51071533,21.51071533,0.028876958,22.36073517,[-0.29888888888888887],[0.08666666666666667],[1],[0],[0],[0.8644602079875767],['target'],,,,AN,1,2024-10-04_11h21.46.712,V3,2024.1.5,2024-10-04 11h21.52.492013 +0530
17,0,17,0,22.40748342,,,,,,,,,22.36486233,10,22.40748342,22.40748342,0.0289645,23.77369887,[0.48444444444444446],[0.021111111111111112],[1],[0],[0],[1.3804724588990211],['target'],,,,AN,1,2024-10-04_11h21.46.712,V3,2024.1.5,2024-10-04 11h21.52.492013 +0530
18,0,18,0,23.80298963,,,,,,,,,23.77785417,5,23.80298963,23.80298963,0.015292875,25.23021813,[0.2788888888888889],[-0.1688888888888889],[1],[0],[0],[1.4375879589933902],['target'],,,,AN,1,2024-10-04_11h21.46.712,V3,2024.1.5,2024-10-04 11h21.52.492013 +0530
19,0,19,0,25.27772688,,,,,,,,,25.23438958,10,25.27772688,25.27772688,0.029211541,26.66606958,[0.04111111111111111],[-0.44555555555555554],[1],[0],[0],[1.4026432500686496],['target'],,,,AN,1,2024-10-04_11h21.46.712,V3,2024.1.5,2024-10-04 11h21.52.492013 +0530
20,0,20,0,26.71738904,,,,,,,,,26.67056025,10,26.71738904,26.71738904,0.031688916,28.03715817,[-0.42333333333333334],[-0.30777777777777776],[1],[0],[0],[1.335592292016372],['target'],,,,AN,1,2024-10-04_11h21.46.712,V3,2024.1.5,2024-10-04 11h21.52.492013 +0530
21,0,21,0,28.06665033,,,,,,,,,28.04134025,5,28.06665033,28.06665033,0.015249,28.98547508,[-0.1411111111111111],[0.30444444444444446],[1],[0],[0],[0.9287905420642346],['target'],,,,AN,1,2024-10-04_11h21.46.712,V3,2024.1.5,2024-10-04 11h21.52.492013 +0530
22,0,22,0,29.04536671,,,,,,,,,28.99054371,10,29.04536671,29.04536671,0.03704075,30.60360538,[0.06111111111111111],[-0.26222222222222225],[1],[0],[0],[1.575962083064951],['target'],,,,AN,1,2024-10-04_11h21.46.712,V3,2024.1.5,2024-10-04 11h21.52.492013 +0530
23,0,23,0,30.69231767,,,,,,,,,30.61219467,10,30.69231767,30.69231767,0.057870167,31.85028125,[-0.28888888888888886],[-0.4066666666666667],[1],[0],[0],[1.1816437920788303],['target'],,,,AN,1,2024-10-04_11h21.46.712,V3,2024.1.5,2024-10-04 11h21.52.492013 +0530
24,0,24,0,31.87985067,,,,,,,,,31.85443783,5,31.87985067,31.87985067,0.015606458,32.93702879,[-0.42444444444444446],[0.44666666666666666],[1],[0],[0],[1.0675062499940395],['target'],,,,AN,1,2024-10-04_11h21.46.712,V3,2024.1.5,2024-10-04 11h21.52.492013 +0530
25,0,25,0,32.98461192,,,,,,,,,32.94120708,10,32.98461192,32.98461192,0.029129042,34.13059346,[-0.12222222222222222],[-0.17],[1],[0],[0],[1.160842709010467],['target'],,,,AN,1,2024-10-04_11h21.46.712,V3,2024.1.5,2024-10-04 11h21.52.492013 +0530
26,0,26,0,34.15961808,,,,,,,,,34.134742,5,34.15961808,34.15961808,0.015479834,34.88066004,[-0.09888888888888889],[0.09888888888888889],[1],[0],[0],[0.7310374579392374],['target'],,,,AN,1,2024-10-04_11h21.46.712,V3,2024.1.5,2024-10-04 11h21.52.492013 +0530
27,0,27,0,34.90936454,,,,,,,,,34.88473208,5,34.90936454,34.90936454,0.015034125,35.70781342,[0.04],[0.1622222222222222],[1],[0],[0],[0.8086345830233768],['target'],,,,AN,1,2024-10-04_11h21.46.712,V3,2024.1.5,2024-10-04 11h21.52.492013 +0530
28,0,28,0,35.75462408,,,,,,,,,35.71197725,10,35.75462408,35.75462408,0.028677542,36.86239633,[-0.19444444444444445],[0.42333333333333334],[1],[0],[0],[1.1223070410778746],['target'],,,,AN,1,2024-10-04_11h21.46.712,V3,2024.1.5,2024-10-04 11h21.52.492013 +0530
29,0,29,0,36.89155846,,,,,,,,,36.866578,5,36.89155846,36.89155846,0.015279417,38.28113704,[0.38666666666666666],[-0.3422222222222222],[1],[0],[0],[1.3998554580612108],['target'],,,,AN,1,2024-10-04_11h21.46.712,V3,2024.1.5,2024-10-04 11h21.52.492013 +0530
30,0,30,0,38.31028758,,,,,,,,,38.28528229,5,38.31028758,38.31028758,0.015118375,39.29737129,[0.2222222222222222],[-0.15555555555555556],[1],[0],[0],[0.9976064999355003],['target'],,,,AN,1,2024-10-04_11h21.46.712,V3,2024.1.5,2024-10-04 11h21.52.492013 +0530
31,0,31,0,39.32657458,,,,,,,,,39.30150017,5,39.32657458,39.32657458,0.015109042,40.88073596,[0.027777777777777776],[-0.4266666666666667],[1],[0],[0],[1.564676458016038],['target'],,,,AN,1,2024-10-04_11h21.46.712,V3,2024.1.5,2024-10-04 11h21.52.492013 +0530
32,0,32,0,40.927454,,,,,,,,,40.88482392,10,40.927454,40.927454,0.02895675,41.91166163,[-0.11444444444444445],[0.1322222222222222],[1],[0],[0],[0.998456959030591],['target'],,,,AN,1,2024-10-04_11h21.46.712,V3,2024.1.5,2024-10-04 11h21.52.492013 +0530
33,0,33,0,41.94108508,,,,,,,,,41.91578688,5,41.94108508,41.94108508,0.015197625,43.46462346,[-0.47888888888888886],[-0.09888888888888889],[1],[0],[0],[1.5341756250709295],['target'],,,,AN,1,2024-10-04_11h21.46.712,V3,2024.1.5,2024-10-04 11h21.52.492013 +0530
34,0,34,0,43.49377246,,,,,,,,,43.46876033,5,43.49377246,43.49377246,0.015073958,45.09130975,[0.38222222222222224],[0.37777777777777777],[1],[0],[0],[1.6080981669947505],['target'],,,,AN,1,2024-10-04_11h21.46.712,V3,2024.1.5,2024-10-04 11h21.52.492013 +0530
35,0,35,0,45.13863083,,,,,,,,,45.09537938,10,45.13863083,45.13863083,0.029177625,48.51221817,[-0.08888888888888889],[-0.4411111111111111],[1],[0],[0],[3.388229583040811],['target'],,,,AN,1,2024-10-04_11h21.46.712,V3,2024.1.5,2024-10-04 11h21.52.492013 +0530
36,0,36,0,48.55871463,,,,,,,,,48.51638238,10,48.55871463,48.55871463,0.028687917,50.95212746,[0.31666666666666665],[0.3233333333333333],[1],[0],[0],[2.407492999918759],['target'],,,,AN,1,2024-10-04_11h21.46.712,V3,2024.1.5,2024-10-04 11h21.52.492013 +0530
37,0,37,0,50.98229908,,,,,,,,,50.95674654,5,50.98229908,50.98229908,0.015817958,51.99408946,[0.4911111111111111],[0.35888888888888887],[1],[0],[0],[1.0221251669572666],['target'],,,,AN,1,2024-10-04_11h21.46.712,V3,2024.1.5,2024-10-04 11h21.52.492013 +0530
38,0,38,0,52.04122683,,,,,,,,,51.99823696,10,52.04122683,52.04122683,0.02882575,55.5085245,[0.1288888888888889],[0.03333333333333333],[1],[0],[0],[3.482075250009075],['target'],,,,AN,1,2024-10-04_11h21.46.712,V3,2024.1.5,2024-10-04 11h21.52.492013 +0530
39,0,39,0,55.55530896,,,,,,,,,55.51268383,10,55.55530896,55.55530896,0.028706666,56.49855975,[0.034444444444444444],[0.13444444444444445],[1],[0],[0],[0.9577611250570044],['target'],,,,AN,1,2024-10-04_11h21.46.712,V3,2024.1.5,2024-10-04 11h21.52.492013 +0530
40,0,40,0,56.527541,,,,,,,,,56.50267308,5,56.527541,56.527541,0.015205042,57.58171892,[-0.31444444444444447],[0.37777777777777777],[1],[0],[0],[1.0643417909741402],['target'],,,,AN,1,2024-10-04_11h21.46.712,V3,2024.1.5,2024-10-04 11h21.52.492013 +0530
41,0,41,0,57.61068183,,,,,,,,,57.58587196,5,57.61068183,57.61068183,0.014979042,58.79176621,[0.26222222222222225],[0.20555555555555555],[1],[0],[0],[1.191508249961771],['target'],,,,AN,1,2024-10-04_11h21.46.712,V3,2024.1.5,2024-10-04 11h21.52.492013 +0530
42,0,42,0,58.84292625,,,,,,,,,58.79588229,10,58.84292625,58.84292625,0.028853292,60.65489037,[-0.3933333333333333],[-0.2588888888888889],[1],[0],[0],[1.83072783309035],['target'],,,,AN,1,2024-10-04_11h21.46.712,V3,2024.1.5,2024-10-04 11h21.52.492013 +0530
43,0,43,0,60.68430596,,,,,,,,,60.65905608,5,60.68430596,60.68430596,0.015538333,62.38209863,[0.24333333333333335],[-0.3511111111111111],[1],[0],[0],[1.70813341694884],['target'],,,,AN,1,2024-10-04_11h21.46.712,V3,2024.1.5,2024-10-04 11h21.52.492013 +0530
44,0,44,0,62.42901042,,,,,,,,,62.38622962,10,62.42901042,62.42901042,0.02853225,63.92654288,[0.4033333333333333],[0.28],[1],[0],[0],[1.5123348750639707],['target'],,,,AN,1,2024-10-04_11h21.46.712,V3,2024.1.5,2024-10-04 11h21.52.492013 +0530
45,0,45,0,63.97301188,,,,,,,,,63.93067371,10,63.97301188,63.97301188,0.028499792,65.80875429,[0.14333333333333334],[-0.3877777777777778],[1],[0],[0],[1.8501229169778526],['target'],,,,AN,1,2024-10-04_11h21.46.712,V3,2024.1.5,2024-10-04 11h21.52.492013 +0530
46,0,46,0,65.83772392,,,,,,,,,65.81291196,5,65.83772392,65.83772392,0.015095834,66.89250196,[-0.3333333333333333],[-0.10111111111111111],[1],[0],[0],[1.0650628749281168],['target'],,,,AN,1,2024-10-04_11h21.46.712,V3,2024.1.5,2024-10-04 11h21.52.492013 +0530
47,0,47,0,66.94131033,,,,,,,,,66.89659013,10,66.94131033,66.94131033,0.028546083,68.26447508,[-0.15333333333333332],[-0.4388888888888889],[1],[0],[0],[1.3399397919420153],['target'],,,,AN,1,2024-10-04_11h21.46.712,V3,2024.1.5,2024-10-04 11h21.52.492013 +0530
48,0,48,0,68.31130117,,,,,,,,,68.26864963,10,68.31130117,68.31130117,0.02854825,69.82537946,[-0.2644444444444444],[-0.4622222222222222],[1],[0],[0],[1.528512499993667],['target'],,,,AN,1,2024-10-04_11h21.46.712,V3,2024.1.5,2024-10-04 11h21.52.492013 +0530
49,0,49,0,69.91518113,,,,,,,,,69.83336058,10,69.91518113,69.91518113,0.056547417,71.42574,[0.10111111111111111],[-0.2922222222222222],[1],[0],[0],[1.5372523330152035],['target'],,,,AN,1,2024-10-04_11h21.46.712,V3,2024.1.5,2024-10-04 11h21.52.492013 +0530
50,0,50,0,71.47299246,,,,,,,,,71.42998121,10,71.47299246,71.47299246,0.028891083,72.782544,[0.2588888888888889],[0.0011111111111111111],[1],[0],[0],[1.324169166968204],['target'],,,,AN,1,2024-10-04_11h21.46.712,V3,2024.1.5,2024-10-04 11h21.52.492013 +0530
51,0,51,0,72.829172,,,,,,,,,72.78667546,10,72.829172,72.829172,0.028579958,74.543994,[0.18666666666666668],[-0.2411111111111111],[1],[0],[0],[1.7293743339832872],['target'],,,,AN,1,2024-10-04_11h21.46.712,V3,2024.1.5,2024-10-04 11h21.52.492013 +0530
52,0,52,0,74.57289946,,,,,,,,,74.54806388,5,74.57289946,74.57289946,0.015209916,75.89284542,[0.48444444444444446],[-0.12666666666666668],[1],[0],[0],[1.3300355829996988],['target'],,,,AN,1,2024-10-04_11h21.46.712,V3,2024.1.5,2024-10-04 11h21.52.492013 +0530
53,0,53,0,75.94068671,,,,,,,,,75.89695713,10,75.94068671,75.94068671,0.028801542,77.16908242,[0.2411111111111111],[0.35555555555555557],[1],[0],[0],[1.2439016670687124],['target'],,,,AN,1,2024-10-04_11h21.46.712,V3,2024.1.5,2024-10-04 11h21.52.492013 +0530
54,0,54,0,77.21585954,,,,,,,,,77.17320021,10,77.21585954,77.21585954,0.028474417,80.128712,[0.023333333333333334],[-0.3188888888888889],[1],[0],[0],[2.927648124983534],['target'],,,,AN,1,2024-10-04_11h21.46.712,V3,2024.1.5,2024-10-04 11h21.52.492013 +0530
55,0,55,0,80.17577387,,,,,,,,,80.13285758,10,80.17577387,80.17577387,0.028877083,83.46555621,[0.4777777777777778],[-0.03333333333333333],[1],[0],[0],[3.3044203330064192],['target'],,,,AN,1,2024-10-04_11h21.46.712,V3,2024.1.5,2024-10-04 11h21.52.492013 +0530
56,0,56,0,83.49515263,,,,,,,,,83.46982888,5,83.49515263,83.49515263,0.015535334,85.74664438,[-0.14222222222222222],[0.43333333333333335],[1],[0],[0],[2.26173845899757],['target'],,,,AN,1,2024-10-04_11h21.46.712,V3,2024.1.5,2024-10-04 11h21.52.492013 +0530
57,0,57,0,85.79020892,,,,,,,,,85.75293537,5,85.79020892,85.79020892,0.023191542,87.86819438,[-0.3111111111111111],[-0.45555555555555555],[1],[0],[0],[2.0930307500530034],['target'],,,,AN,1,2024-10-04_11h21.46.712,V3,2024.1.5,2024-10-04 11h21.52.492013 +0530
58,0,58,0,87.91660742,,,,,,,,,87.87248021,10,87.91660742,87.91660742,0.029754041,89.97852283,[-0.13],[0.19444444444444445],[1],[0],[0],[2.0769328330643475],['target'],,,,AN,1,2024-10-04_11h21.46.712,V3,2024.1.5,2024-10-04 11h21.52.492013 +0530
59,0,59,0,90.00778004,,,,,,,,,89.98265083,5,90.00778004,90.00778004,0.015442625,91.21626892,[-0.4822222222222222],[-0.4633333333333333],[1],[0],[0],[1.2186662079766393],['target'],,,,AN,1,2024-10-04_11h21.46.712,V3,2024.1.5,2024-10-04 11h21.52.492013 +0530
60,0,60,0,91.24546363,,,,,,,,,91.2204315,5,91.24546363,91.24546363,0.015003584,93.27702404,[0.2911111111111111],[-0.48],[1],[0],[0],[2.0421938330400735],['target'],,,,AN,1,2024-10-04_11h21.46.712,V3,2024.1.5,2024-10-04 11h21.52.492013 +0530
61,0,61,0,93.30619217,,,,,,,,,93.28112863,5,93.30619217,93.30619217,0.015206708,94.53324004,[0.39222222222222225],[0.04111111111111111],[1],[0],[0],[1.23750895797275],['target'],,,,AN,1,2024-10-04_11h21.46.712,V3,2024.1.5,2024-10-04 11h21.52.492013 +0530
62,0,62,0,94.56295679,,,,,,,,,94.53751804,5,94.56295679,94.56295679,0.015410333,95.70946475,[0.23666666666666666],[0.3977777777777778],[1],[0],[0],[1.1571328750578687],['target'],,,,AN,1,2024-10-04_11h21.46.712,V3,2024.1.5,2024-10-04 11h21.52.492013 +0530
63,0,63,0,95.73861904,,,,,,,,,95.71361054,5,95.73861904,95.73861904,0.014951875,96.99257858,[-0.31],[0.19666666666666666],[1],[0],[0],[1.2646188338985667],['target'],,,,AN,1,2024-10-04_11h21.46.712,V3,2024.1.5,2024-10-04 11h21.52.492013 +0530
64,0,64,0,97.03972037,,,,,,,,,96.99677375,10,97.03972037,97.03972037,0.028773333,98.83121621,[0.49],[-0.2477777777777778],[1],[0],[0],[1.8062530419556424],['target'],,,,AN,1,2024-10-04_11h21.46.712,V3,2024.1.5,2024-10-04 11h21.52.492013 +0530
65,0,65,0,98.87805438,,,,,,,,,98.83535313,10,98.87805438,98.87805438,0.028648625,101.5485987,[-0.2877777777777778],[0.0077777777777777776],[1],[0],[0],[2.68526533304248],['target'],,,,AN,1,2024-10-04_11h21.46.712,V3,2024.1.5,2024-10-04 11h21.52.492013 +0530
66,0,66,0,101.5775493,,,,,,,,,101.5527083,5,101.5775493,101.5775493,0.014990958,102.9781412,[-0.10777777777777778],[0.3288888888888889],[1],[0],[0],[1.4108376670628786],['target'],,,,AN,1,2024-10-04_11h21.46.712,V3,2024.1.5,2024-10-04 11h21.52.492013 +0530
67,0,67,0,103.0073072,,,,,,,,,102.9822802,5,103.0073072,103.0073072,0.015007416,104.1431356,[0.28888888888888886],[0.10111111111111111],[1],[0],[0],[1.146397125092335],['target'],,,,AN,1,2024-10-04_11h21.46.712,V3,2024.1.5,2024-10-04 11h21.52.492013 +0530
68,0,68,0,104.1897387,,,,,,,,,104.147256,10,104.1897387,104.1897387,0.028499333,105.3828244,[0.1111111111111111],[0.28444444444444444],[1],[0],[0],[1.207667208975181],['target'],,,,AN,1,2024-10-04_11h21.46.712,V3,2024.1.5,2024-10-04 11h21.52.492013 +0530
69,0,69,0,105.4121242,,,,,,,,,105.3869346,5,105.4121242,105.4121242,0.015412334,106.3434835,[-0.058888888888888886],[0.40555555555555556],[1],[0],[0],[0.9416859170887619],['target'],,,,AN,1,2024-10-04_11h21.46.712,V3,2024.1.5,2024-10-04 11h21.52.492013 +0530
70,0,70,0,106.3727203,,,,,,,,,106.3476367,5,106.3727203,106.3727203,0.01487375,107.3836594,[-0.18222222222222223],[0.45],[1],[0],[0],[1.0217264579841867],['target'],,,,AN,1,2024-10-04_11h21.46.712,V3,2024.1.5,2024-10-04 11h21.52.492013 +0530
71,0,71,0,107.4128195,,,,,,,,,107.3878274,5,107.4128195,107.4128195,0.014963167,108.5934037,[-0.3233333333333333],[-0.06444444444444444],[1],[0],[0],[1.1912232920294628],['target'],,,,AN,1,2024-10-04_11h21.46.712,V3,2024.1.5,2024-10-04 11h21.52.492013 +0530
72,0,72,0,108.6224482,,,,,,,,,108.5975294,5,108.6224482,108.6224482,0.014931042,110.521177,[0.4955555555555556],[-0.3977777777777778],[1],[0],[0],[1.9088932500453666],['target'],,,,AN,1,2024-10-04_11h21.46.712,V3,2024.1.5,2024-10-04 11h21.52.492013 +0530
73,0,73,0,110.5723452,,,,,,,,,110.5257001,10,110.5723452,110.5723452,0.031881875,111.9872648,[-0.4022222222222222],[0.15222222222222223],[1],[0],[0],[1.4303527089068666],['target'],,,,AN,1,2024-10-04_11h21.46.712,V3,2024.1.5,2024-10-04 11h21.52.492013 +0530
74,0,74,0,112.034407,,,,,,,,,111.9914327,10,112.034407,112.034407,0.028818875,113.4494576,[0.16555555555555557],[0.36333333333333334],[1],[0],[0],[1.4298000410199165],['target'],,,,AN,1,2024-10-04_11h21.46.712,V3,2024.1.5,2024-10-04 11h21.52.492013 +0530
75,0,75,0,113.4961878,,,,,,,,,113.4535863,10,113.4961878,113.4961878,0.028503916,116.1460816,[-0.4577777777777778],[-0.37444444444444447],[1],[0],[0],[2.664601416909136],['target'],,,,AN,1,2024-10-04_11h21.46.712,V3,2024.1.5,2024-10-04 11h21.52.492013 +0530
76,0,76,0,116.1929507,,,,,,,,,116.1502463,10,116.1929507,116.1929507,0.028703625,117.245032,[-0.1688888888888889],[0.28],[1],[0],[0],[1.066623124992475],['target'],,,,AN,1,2024-10-04_11h21.46.712,V3,2024.1.5,2024-10-04 11h21.52.492013 +0530
77,0,77,0,117.2928005,,,,,,,,,117.2492741,10,117.2928005,117.2928005,0.028731292,118.4369076,[0.1511111111111111],[0.41888888888888887],[1],[0],[0],[1.1595358749618754],['target'],,,,AN,1,2024-10-04_11h21.46.712,V3,2024.1.5,2024-10-04 11h21.52.492013 +0530
78,0,78,0,118.4834992,,,,,,,,,118.4410157,10,118.4834992,118.4834992,0.028593541,121.1707731,[-0.05333333333333334],[0.1],[1],[0],[0],[2.701703041908331],['target'],,,,AN,1,2024-10-04_11h21.46.712,V3,2024.1.5,2024-10-04 11h21.52.492013 +0530
79,0,79,0,121.199731,,,,,,,,,121.1749497,5,121.199731,121.199731,0.015241458,121.9609277,[-0.058888888888888886],[0.20666666666666667],[1],[0],[0],[0.7714080000296235],['target'],,,,AN,1,2024-10-04_11h21.46.712,V3,2024.1.5,2024-10-04 11h21.52.492013 +0530
80,0,80,0,121.9903042,,,,,,,,,121.9650628,5,121.9903042,121.9903042,0.01488625,123.2836851,[-0.35888888888888887],[0.14666666666666667],[1],[0],[0],[1.304339291062206],['target'],,,,AN,1,2024-10-04_11h21.46.712,V3,2024.1.5,2024-10-04 11h21.52.492013 +0530
81,0,81,0,123.3128054,,,,,,,,,123.2878201,5,123.3128054,123.3128054,0.015058666,124.3335363,[-0.2644444444444444],[-0.13333333333333333],[1],[0],[0],[1.03124345804099],['target'],,,,AN,1,2024-10-04_11h21.46.712,V3,2024.1.5,2024-10-04 11h21.52.492013 +0530
82,0,82,0,124.3628088,,,,,,,,,124.3376398,5,124.3628088,124.3628088,0.015033666,125.5940554,[0.14],[0.20555555555555555],[1],[0],[0],[1.2419363330118358],['target'],,,,AN,1,2024-10-04_11h21.46.712,V3,2024.1.5,2024-10-04 11h21.52.492013 +0530
83,0,83,0,125.623136,,,,,,,,,125.5981907,5,125.623136,125.623136,0.014875916,126.9447362,[0.11666666666666667],[0.03222222222222222],[1],[0],[0],[1.3322219159454107],['target'],,,,AN,1,2024-10-04_11h21.46.712,V3,2024.1.5,2024-10-04 11h21.52.492013 +0530
84,0,84,0,126.9756176,,,,,,,,,126.9488506,5,126.9756176,126.9756176,0.015438166,128.3345355,[-0.43],[-0.22],[1],[0],[0],[1.3708000420592725],['target'],,,,AN,1,2024-10-04_11h21.46.712,V3,2024.1.5,2024-10-04 11h21.52.492013 +0530
85,0,85,0,128.3634693,,,,,,,,,128.3386298,5,128.3634693,128.3634693,0.014960041,129.7795449,[-0.25333333333333335],[-0.36333333333333334],[1],[0],[0],[1.4264260829659179],['target'],,,,AN,1,2024-10-04_11h21.46.712,V3,2024.1.5,2024-10-04 11h21.52.492013 +0530
86,0,86,0,129.8321618,,,,,,,,,129.7842221,10,129.8321618,129.8321618,0.032239583,130.7539712,[-0.39444444444444443],[0.37555555555555553],[1],[0],[0],[0.9381629999261349],['target'],,,,AN,1,2024-10-04_11h21.46.712,V3,2024.1.5,2024-10-04 11h21.52.492013 +0530
87,0,87,0,130.7830804,,,,,,,,,130.758124,5,130.7830804,130.7830804,0.015167875,132.267485,[0.23555555555555555],[-0.07666666666666666],[1],[0],[0],[1.4948048330843449],['target'],,,,AN,1,2024-10-04_11h21.46.712,V3,2024.1.5,2024-10-04 11h21.52.492013 +0530
88,0,88,0,132.2964323,,,,,,,,,132.2715903,5,132.2964323,132.2964323,0.01505125,135.283899,[-0.3466666666666667],[0.4666666666666667],[1],[0],[0],[2.997850958025083],['target'],,,,AN,1,2024-10-04_11h21.46.712,V3,2024.1.5,2024-10-04 11h21.52.492013 +0530
89,0,89,0,135.3131078,,,,,,,,,135.2880336,5,135.3131078,135.3131078,0.015052292,136.7109502,[0.18888888888888888],[-0.22333333333333333],[1],[0],[0],[1.4084710410097614],['target'],,,,AN,1,2024-10-04_11h21.46.712,V3,2024.1.5,2024-10-04 11h21.52.492013 +0530
90,0,90,0,136.741068,,,,,,,,,136.7150625,5,136.741068,136.741068,0.015500542,138.2783103,[0.4533333333333333],[-0.32],[1],[0],[0],[1.548298249952495],['target'],,,,AN,1,2024-10-04_11h21.46.712,V3,2024.1.5,2024-10-04 11h21.52.492013 +0530
91,0,91,0,138.3269563,,,,,,,,,138.2823638,10,138.3269563,138.3269563,0.028211416,140.4115616,[-0.10666666666666667],[-0.07222222222222222],[1],[0],[0],[2.1015575830824673],['target'],,,,AN,1,2024-10-04_11h21.46.712,V3,2024.1.5,2024-10-04 11h21.52.492013 +0530
92,0,92,0,140.460913,,,,,,,,,140.4158073,10,140.460913,140.460913,0.030157208,142.3173905,[0.18666666666666668],[0.15],[1],[0],[0],[1.8720729580381885],['target'],,,,AN,1,2024-10-04_11h21.46.712,V3,2024.1.5,2024-10-04 11h21.52.492013 +0530
93,0,93,0,142.3467185,,,,,,,,,142.3214833,5,142.3467185,142.3467185,0.015325875,143.7013186,[0.42777777777777776],[0.0],[1],[0],[0],[1.3650750829838216],['target'],,,,AN,1,2024-10-04_11h21.46.712,V3,2024.1.5,2024-10-04 11h21.52.492013 +0530
94,0,94,0,143.7304939,,,,,,,,,143.7054413,5,143.7304939,143.7304939,0.014983459,145.5349333,[-0.15333333333333332],[-0.47888888888888886],[1],[0],[0],[1.815039417007938],['target'],,,,AN,1,2024-10-04_11h21.46.712,V3,2024.1.5,2024-10-04 11h21.52.492013 +0530
95,0,95,0,145.5640919,,,,,,,,,145.5389782,5,145.5640919,145.5640919,0.015194542,147.3344304,[-0.27555555555555555],[-0.23777777777777778],[1],[0],[0],[1.7808510418981314],['target'],,,,AN,1,2024-10-04_11h21.46.712,V3,2024.1.5,2024-10-04 11h21.52.492013 +0530
96,0,96,0,147.3637669,,,,,,,,,147.3385172,5,147.3637669,147.3637669,0.015344,149.2345456,[0.13111111111111112],[0.2822222222222222],[1],[0],[0],[1.8812303750310093],['target'],,,,AN,1,2024-10-04_11h21.46.712,V3,2024.1.5,2024-10-04 11h21.52.492013 +0530
97,0,97,0,149.2637815,,,,,,,,,149.2386312,5,149.2637815,149.2637815,0.015322209,150.77848,[-0.1988888888888889],[0.04555555555555556],[1],[0],[0],[1.5251541669713333],['target'],,,,AN,1,2024-10-04_11h21.46.712,V3,2024.1.5,2024-10-04 11h21.52.492013 +0530
98,0,98,0,150.8077798,,,,,,,,,150.7825589,5,150.8077798,150.8077798,0.01521275,152.2344224,[0.07],[0.26555555555555554],[1],[0],[0],[1.437255791039206],['target'],,,,AN,1,2024-10-04_11h21.46.712,V3,2024.1.5,2024-10-04 11h21.52.492013 +0530
99,0,99,0,152.281356,,,,,,,,,152.2385303,10,152.281356,152.281356,0.028627583,153.9288147,[-0.22],[-0.17777777777777778],[1],[0],[0],[1.6622147089801729],['target'],,,,AN,1,2024-10-04_11h21.46.712,V3,2024.1.5,2024-10-04 11h21.52.492013 +0530
100,0,100,0,153.9773175,,,,,,,,,153.9329903,10,153.9773175,153.9773175,0.028646208,155.4181546,[-0.26],[-0.19666666666666666],[1],[0],[0],[1.4570962500292808],['target'],,,,AN,1,2024-10-04_11h21.46.712,V3,2024.1.5,2024-10-04 11h21.52.492013 +0530
101,0,101,0,155.4648275,,,,,,,,,155.4222604,10,155.4648275,155.4648275,0.028529625,157.9814564,[0.021111111111111112],[0.06222222222222222],[1],[0],[0],[2.531295125023462],['target'],,,,AN,1,2024-10-04_11h21.46.712,V3,2024.1.5,2024-10-04 11h21.52.492013 +0530
102,0,102,0,158.0282745,,,,,,,,,157.9855796,10,158.0282745,158.0282745,0.02863,160.1892117,[-0.28],[-0.13111111111111112],[1],[0],[0],[2.175586709054187],['target'],,,,AN,1,2024-10-04_11h21.46.712,V3,2024.1.5,2024-10-04 11h21.52.492013 +0530
103,0,103,0,160.2183826,,,,,,,,,160.1933431,5,160.2183826,160.2183826,0.015037583,161.9852817,[0.3211111111111111],[-0.13666666666666666],[1],[0],[0],[1.7775153750553727],['target'],,,,AN,1,2024-10-04_11h21.46.712,V3,2024.1.5,2024-10-04 11h21.52.492013 +0530
104,0,104,0,162.0143721,,,,,,,,,161.9893606,5,162.0143721,162.0143721,0.014958708,163.4743962,[0.011111111111111112],[-0.07444444444444444],[1],[0],[0],[1.4705797089263797],['target'],,,,AN,1,2024-10-04_11h21.46.712,V3,2024.1.5,2024-10-04 11h21.52.492013 +0530
105,0,105,0,163.503291,,,,,,,,,163.4784795,5,163.503291,163.503291,0.014872333,164.9012743,[0.28555555555555556],[0.03333333333333333],[1],[0],[0],[1.4085399999748915],['target'],,,,AN,1,2024-10-04_11h21.46.712,V3,2024.1.5,2024-10-04 11h21.52.492013 +0530
106,0,106,0,164.930285,,,,,,,,,164.9053539,5,164.930285,164.930285,0.014956666,166.062462,[0.09555555555555556],[-0.14],[1],[0],[0],[1.142749874969013],['target'],,,,AN,1,2024-10-04_11h21.46.712,V3,2024.1.5,2024-10-04 11h21.52.492013 +0530
107,0,107,0,166.0919644,,,,,,,,,166.0666588,5,166.0919644,166.0919644,0.015218292,167.8956277,[0.03111111111111111],[-0.21222222222222223],[1],[0],[0],[1.814372207969427],['target'],,,,AN,1,2024-10-04_11h21.46.712,V3,2024.1.5,2024-10-04 11h21.52.492013 +0530
108,0,108,0,168.0932243,,,,,,,,,167.8997373,10,168.0932243,168.0932243,0.178181584,169.3784611,[-0.39111111111111113],[0.056666666666666664],[1],[0],[0],[1.301065625040792],['target'],,,,AN,1,2024-10-04_11h21.46.712,V3,2024.1.5,2024-10-04 11h21.52.492013 +0530
109,0,109,0,169.407862,,,,,,,,,169.382612,5,169.407862,169.407862,0.01518125,171.2125984,[0.10333333333333333],[-0.3211111111111111],[1],[0],[0],[1.8153934578876942],['target'],,,,AN,1,2024-10-04_11h21.46.712,V3,2024.1.5,2024-10-04 11h21.52.492013 +0530
110,0,110,0,171.261353,,,,,,,,,171.2167442,10,171.261353,171.261353,0.028700167,173.3498083,[-0.3233333333333333],[0.40555555555555556],[1],[0],[0],[2.1048711250768974],['target'],,,,AN,1,2024-10-04_11h21.46.712,V3,2024.1.5,2024-10-04 11h21.52.492013 +0530
111,0,111,0,173.3792262,,,,,,,,,173.353975,5,173.3792262,173.3792262,0.015296875,175.1125373,[0.45],[0.09555555555555556],[1],[0],[0],[1.743926457944326],['target'],,,,AN,1,2024-10-04_11h21.46.712,V3,2024.1.5,2024-10-04 11h21.52.492013 +0530
112,0,112,0,175.1418839,,,,,,,,,175.116738,5,175.1418839,175.1418839,0.014930541,176.947188,[-0.3511111111111111],[-0.2688888888888889],[1],[0],[0],[1.8160831249551848],['target'],,,,AN,1,2024-10-04_11h21.46.712,V3,2024.1.5,2024-10-04 11h21.52.492013 +0530
113,0,113,0,176.994334,,,,,,,,,176.9513919,10,176.994334,176.994334,0.028976625,180.5850846,[-0.12555555555555556],[0.4677777777777778],[1],[0],[0],[3.6052537499926984],['target'],,,,AN,1,2024-10-04_11h21.46.712,V3,2024.1.5,2024-10-04 11h21.52.492013 +0530
114,0,114,0,180.6144685,,,,,,,,,180.5892422,5,180.6144685,180.6144685,0.015256917,181.8131371,[-0.14777777777777779],[0.42777777777777776],[1],[0],[0],[1.2091785840457305],['target'],,,,AN,1,2024-10-04_11h21.46.712,V3,2024.1.5,2024-10-04 11h21.52.492013 +0530
115,0,115,0,181.8427594,,,,,,,,,181.8173145,5,181.8427594,181.8427594,0.014972584,183.0294059,[0.2111111111111111],[0.4633333333333333],[1],[0],[0],[1.1976655829930678],['target'],,,,AN,1,2024-10-04_11h21.46.712,V3,2024.1.5,2024-10-04 11h21.52.492013 +0530
116,0,116,0,183.0587882,,,,,,,,,183.0335728,5,183.0587882,183.0587882,0.014978583,184.2979703,[0.44555555555555554],[-0.17],[1],[0],[0],[1.2500285420101136],['target'],,,,AN,1,2024-10-04_11h21.46.712,V3,2024.1.5,2024-10-04 11h21.52.492013 +0530
117,0,117,0,184.3450819,,,,,,,,,184.3020946,10,184.3450819,184.3450819,0.028875583,186.2391694,[-0.14444444444444443],[0.45444444444444443],[1],[0],[0],[1.908785167033784],['target'],,,,AN,1,2024-10-04_11h21.46.712,V3,2024.1.5,2024-10-04 11h21.52.492013 +0530
118,0,118,0,186.2681979,,,,,,,,,186.2432838,5,186.2681979,186.2681979,0.015181916,188.1363903,[-0.21],[-0.4488888888888889],[1],[0],[0],[1.8785273749381304],['target'],,,,AN,1,2024-10-04_11h21.46.712,V3,2024.1.5,2024-10-04 11h21.52.492013 +0530
119,0,119,0,188.1830273,,,,,,,,,188.1405187,10,188.1830273,188.1830273,0.028587208,190.1799861,[-0.33555555555555555],[0.05444444444444444],[1],[0],[0],[2.011464750044979],['target'],,,,AN,1,2024-10-04_11h21.46.712,V3,2024.1.5,2024-10-04 11h21.52.492013 +0530
120,0,120,0,190.21285,,,,,,,,,190.1847292,5,190.21285,190.21285,0.017383209,191.669519,[0.18444444444444444],[-0.4533333333333333],[1],[0],[0],[1.4681667078984901],['target'],,,,AN,1,2024-10-04_11h21.46.712,V3,2024.1.5,2024-10-04 11h21.52.492013 +0530
121,0,121,0,191.7164491,,,,,,,,,191.6736481,10,191.7164491,191.7164491,0.028710292,193.0354867,[-0.29],[0.3233333333333333],[1],[0],[0],[1.333729917067103],['target'],,,,AN,1,2024-10-04_11h21.46.712,V3,2024.1.5,2024-10-04 11h21.52.492013 +0530
122,0,122,0,193.0646607,,,,,,,,,193.0396317,5,193.0646607,193.0646607,0.015045458,194.4628401,[0.44666666666666666],[-0.39444444444444443],[1],[0],[0],[1.408763499930501],['target'],,,,AN,1,2024-10-04_11h21.46.712,V3,2024.1.5,2024-10-04 11h21.52.492013 +0530
123,0,123,0,194.492102,,,,,,,,,194.4669391,5,194.492102,194.492102,0.014962417,195.896825,[0.11777777777777777],[-0.08444444444444445],[1],[0],[0],[1.4155268329195678],['target'],,,,AN,1,2024-10-04_11h21.46.712,V3,2024.1.5,2024-10-04 11h21.52.492013 +0530
124,0,124,0,195.9260505,,,,,,,,,195.9009899,5,195.9260505,195.9260505,0.014908417,197.7028581,[-0.11555555555555555],[0.4177777777777778],[1],[0],[0],[1.787570167100057],['target'],,,,AN,1,2024-10-04_11h21.46.712,V3,2024.1.5,2024-10-04 11h21.52.492013 +0530
125,0,125,0,197.7499421,,,,,,,,,197.7069435,10,197.7499421,197.7499421,0.028806458,199.2137757,[-0.35333333333333333],[-0.06222222222222222],[1],[0],[0],[1.4786262089619413],['target'],,,,AN,1,2024-10-04_11h21.46.712,V3,2024.1.5,2024-10-04 11h21.52.492013 +0530
126,0,126,0,199.243272,,,,,,,,,199.2179328,5,199.243272,199.243272,0.015367625,200.1365437,[-0.16],[0.3055555555555556],[1],[0],[0],[0.9038819579873234],['target'],,,,AN,1,2024-10-04_11h21.46.712,V3,2024.1.5,2024-10-04 11h21.52.492013 +0530
127,0,127,0,200.1831586,,,,,,,,,200.1406299,10,200.1831586,200.1831586,0.028552625,202.1200015,[0.41333333333333333],[-0.24222222222222223],[1],[0],[0],[1.951382500003092],['target'],,,,AN,1,2024-10-04_11h21.46.712,V3,2024.1.5,2024-10-04 11h21.52.492013 +0530
128,0,128,0,202.1672191,,,,,,,,,202.1242406,10,202.1672191,202.1672191,0.028967625,203.6000428,[-0.2922222222222222],[-0.29444444444444445],[1],[0],[0],[1.4474464169470593],['target'],,,,AN,1,2024-10-04_11h21.46.712,V3,2024.1.5,2024-10-04 11h21.52.492013 +0530
129,0,129,0,203.6468646,,,,,,,,,203.6041903,10,203.6468646,203.6468646,0.028531333,205.1647834,[0.0011111111111111111],[0.37555555555555553],[1],[0],[0],[1.5325588330160826],['target'],,,,AN,1,2024-10-04_11h21.46.712,V3,2024.1.5,2024-10-04 11h21.52.492013 +0530
130,0,130,0,205.193952,,,,,,,,,205.1689513,5,205.193952,205.193952,0.015146875,207.1636165,[-0.3522222222222222],[0.4688888888888889],[1],[0],[0],[1.9801661251112819],['target'],,,,AN,1,2024-10-04_11h21.46.712,V3,2024.1.5,2024-10-04 11h21.52.492013 +0530
131,0,131,0,207.2103655,,,,,,,,,207.167696,10,207.2103655,207.2103655,0.028517625,209.0177569,[0.4011111111111111],[-0.16777777777777778],[1],[0],[0],[1.8221529589500278],['target'],,,,AN,1,2024-10-04_11h21.46.712,V3,2024.1.5,2024-10-04 11h21.52.492013 +0530
132,0,132,0,209.0647569,,,,,,,,,209.0218955,10,209.0647569,209.0647569,0.028474417,210.7993851,[0.3211111111111111],[-0.17222222222222222],[1],[0],[0],[1.749525124905631],['target'],,,,AN,1,2024-10-04_11h21.46.712,V3,2024.1.5,2024-10-04 11h21.52.492013 +0530
133,0,133,0,210.8315815,,,,,,,,,210.8035161,5,210.8315815,210.8315815,0.015085333,212.4704907,[-0.13444444444444445],[-0.47555555555555556],[1],[0],[0],[1.6524895830079913],['target'],,,,AN,1,2024-10-04_11h21.46.712,V3,2024.1.5,2024-10-04 11h21.52.492013 +0530
134,0,134,0,212.4995282,,,,,,,,,212.4745629,5,212.4995282,212.4995282,0.014880333,213.5702205,[0.15777777777777777],[0.3622222222222222],[1],[0],[0],[1.0813735829433426],['target'],,,,AN,1,2024-10-04_11h21.46.712,V3,2024.1.5,2024-10-04 11h21.52.492013 +0530
135,0,135,0,213.5993429,,,,,,,,,213.574319,5,213.5993429,213.5993429,0.014975375,215.2802985,[0.23777777777777778],[-0.3111111111111111],[1],[0],[0],[1.6916297919815406],['target'],,,,AN,1,2024-10-04_11h21.46.712,V3,2024.1.5,2024-10-04 11h21.52.492013 +0530
136,0,136,0,215.3096089,,,,,,,,,215.2844369,5,215.3096089,215.3096089,0.015226084,217.44736,[0.07111111111111111],[-0.3422222222222222],[1],[0],[0],[2.148278957931325],['target'],,,,AN,1,2024-10-04_11h21.46.712,V3,2024.1.5,2024-10-04 11h21.52.492013 +0530
137,0,137,0,217.4944129,,,,,,,,,217.4515513,10,217.4944129,217.4944129,0.028637042,220.0232543,[0.3233333333333333],[-0.3655555555555556],[1],[0],[0],[2.543573791976087],['target'],,,,AN,1,2024-10-04_11h21.46.712,V3,2024.1.5,2024-10-04 11h21.52.492013 +0530
138,0,138,0,220.070203,,,,,,,,,220.0273852,10,220.070203,220.070203,0.028758458,222.3728243,[-0.36],[0.48333333333333334],[1],[0],[0],[2.3172299170400947],['target'],,,,AN,1,2024-10-04_11h21.46.712,V3,2024.1.5,2024-10-04 11h21.52.492013 +0530
139,0,139,0,222.4024711,,,,,,,,,222.3769315,5,222.4024711,222.4024711,0.015431792,224.7820433,[0.2688888888888889],[-0.17777777777777778],[1],[0],[0],[2.3902742080390453],['target'],,,,AN,1,2024-10-04_11h21.46.712,V3,2024.1.5,2024-10-04 11h21.52.492013 +0530
140,0,140,0,224.8116492,,,,,,,,,224.7862044,5,224.8116492,224.8116492,0.014906167,226.1132661,[0.09111111111111111],[-0.22111111111111112],[1],[0],[0],[1.3127768749836832],['target'],,,,AN,1,2024-10-04_11h21.46.712,V3,2024.1.5,2024-10-04 11h21.52.492013 +0530
141,0,141,0,226.1600759,,,,,,,,,226.117419,10,226.1600759,226.1600759,0.028565833,227.4414035,[-0.23222222222222222],[0.3655555555555556],[1],[0],[0],[1.2960137500194833],['target'],,,,AN,1,2024-10-04_11h21.46.712,V3,2024.1.5,2024-10-04 11h21.52.492013 +0530
142,0,142,0,227.4703835,,,,,,,,,227.4455815,5,227.4703835,227.4703835,0.014995042,228.8978989,[0.1411111111111111],[-0.02666666666666667],[1],[0],[0],[1.4379264999879524],['target'],,,,AN,1,2024-10-04_11h21.46.712,V3,2024.1.5,2024-10-04 11h21.52.492013 +0530
143,0,143,0,228.9270908,,,,,,,,,228.9020452,5,228.9270908,228.9270908,0.014815125,230.6370743,[-0.3611111111111111],[0.022222222222222223],[1],[0],[0],[1.7207850830163807],['target'],,,,AN,1,2024-10-04_11h21.46.712,V3,2024.1.5,2024-10-04 11h21.52.492013 +0530
144,0,144,0,230.6662034,,,,,,,,,230.6411348,5,230.6662034,230.6662034,0.015209084,232.0705917,[0.3233333333333333],[-0.2011111111111111],[1],[0],[0],[1.41484441596549],['target'],,,,AN,1,2024-10-04_11h21.46.712,V3,2024.1.5,2024-10-04 11h21.52.492013 +0530
145,0,145,0,232.1174555,,,,,,,,,232.074653,10,232.1174555,232.1174555,0.028442958,233.8807719,[-0.32666666666666666],[0.08444444444444445],[1],[0],[0],[1.7782166249817237],['target'],,,,AN,1,2024-10-04_11h21.46.712,V3,2024.1.5,2024-10-04 11h21.52.492013 +0530
146,0,146,0,233.9129867,,,,,,,,,233.8848631,5,233.9129867,233.9129867,0.015137708,235.3039862,[-0.1988888888888889],[-0.16555555555555557],[1],[0],[0],[1.4045855419244617],['target'],,,,AN,1,2024-10-04_11h21.46.712,V3,2024.1.5,2024-10-04 11h21.52.492013 +0530
147,0,147,0,235.3331906,,,,,,,,,235.3081059,5,235.3331906,235.3331906,0.015004792,236.5046824,[-0.15],[-0.035555555555555556],[1],[0],[0],[1.182142790989019],['target'],,,,AN,1,2024-10-04_11h21.46.712,V3,2024.1.5,2024-10-04 11h21.52.492013 +0530
148,0,148,0,236.5512403,,,,,,,,,236.5087656,10,236.5512403,236.5512403,0.028578666,238.3638411,[0.28],[-0.3566666666666667],[1],[0],[0],[1.8271034579956904],['target'],,,,AN,1,2024-10-04_11h21.46.712,V3,2024.1.5,2024-10-04 11h21.52.492013 +0530
149,0,149,0,238.393428,,,,,,,,,238.3679949,5,238.393428,238.393428,0.015365417,239.6410729,[-0.31777777777777777],[0.47555555555555556],[1],[0],[0],[1.258266624994576],['target'],,,,AN,1,2024-10-04_11h21.46.712,V3,2024.1.5,2024-10-04 11h21.52.492013 +0530
150,0,150,0,239.6888811,,,,,,,,,239.6452043,10,239.6888811,239.6888811,0.02868675,240.8663539,[0.22444444444444445],[0.14555555555555555],[1],[0],[0],[1.1930780420079827],['target'],,,,AN,1,2024-10-04_11h21.46.712,V3,2024.1.5,2024-10-04 11h21.52.492013 +0530
151,0,151,0,240.8954004,,,,,,,,,240.8705219,5,240.8954004,240.8954004,0.015047375,242.2042683,[-0.4311111111111111],[0.3],[1],[0],[0],[1.3193149160360917],['target'],,,,AN,1,2024-10-04_11h21.46.712,V3,2024.1.5,2024-10-04 11h21.52.492013 +0530
152,0,152,0,242.251018,,,,,,,,,242.2083803,10,242.251018,242.251018,0.0285615,243.6885136,[-0.4588888888888889],[-0.30333333333333334],[1],[0],[0],[1.452166041941382],['target'],,,,AN,1,2024-10-04_11h21.46.712,V3,2024.1.5,2024-10-04 11h21.52.492013 +0530
153,0,153,0,243.7351345,,,,,,,,,243.6926739,10,243.7351345,243.7351345,0.028518958,245.4649563,[-0.43333333333333335],[0.37444444444444447],[1],[0],[0],[1.7443203330039978],['target'],,,,AN,1,2024-10-04_11h21.46.712,V3,2024.1.5,2024-10-04 11h21.52.492013 +0530
154,0,154,0,245.5114663,,,,,,,,,245.4691815,10,245.5114663,245.5114663,0.028229333,247.37483,[-0.2222222222222222],[-0.07666666666666666],[1],[0],[0],[1.8779832089785486],['target'],,,,AN,1,2024-10-04_11h21.46.712,V3,2024.1.5,2024-10-04 11h21.52.492013 +0530
155,0,155,0,247.4039858,,,,,,,,,247.3789307,5,247.4039858,247.4039858,0.015065,248.8806967,[0.12],[-0.35],[1],[0],[0],[1.4872904170770198],['target'],,,,AN,1,2024-10-04_11h21.46.712,V3,2024.1.5,2024-10-04 11h21.52.492013 +0530
156,0,156,0,248.9100095,,,,,,,,,248.8848188,5,248.9100095,248.9100095,0.0149155,250.7050163,[-0.4166666666666667],[0.05444444444444444],[1],[0],[0],[1.8058602910023183],['target'],,,,AN,1,2024-10-04_11h21.46.712,V3,2024.1.5,2024-10-04 11h21.52.492013 +0530
157,0,157,0,250.7529515,,,,,,,,,250.7092477,10,250.7529515,250.7529515,0.029348792,252.0074894,[0.32222222222222224],[0.47888888888888886],[1],[0],[0],[1.269397292053327],['target'],,,,AN,1,2024-10-04_11h21.46.712,V3,2024.1.5,2024-10-04 11h21.52.492013 +0530
158,0,158,0,252.0375953,,,,,,,,,252.0116497,5,252.0375953,252.0375953,0.015737416,253.4485276,[0.25222222222222224],[-0.10888888888888888],[1],[0],[0],[1.4217553340131417],['target'],,,,AN,1,2024-10-04_11h21.46.712,V3,2024.1.5,2024-10-04 11h21.52.492013 +0530
159,0,159,0,253.4777652,,,,,,,,,253.4526895,5,253.4777652,253.4777652,0.014824875,254.837617,[0.3322222222222222],[-0.1388888888888889],[1],[0],[0],[1.3707067910581827],['target'],,,,AN,1,2024-10-04_11h21.46.712,V3,2024.1.5,2024-10-04 11h21.52.492013 +0530
160,0,160,0,254.8665714,,,,,,,,,254.8417235,5,254.8665714,254.8665714,0.014895625,255.9543691,[0.0077777777777777776],[0.25222222222222224],[1],[0],[0],[1.098359041963704],['target'],,,,AN,1,2024-10-04_11h21.46.712,V3,2024.1.5,2024-10-04 11h21.52.492013 +0530
161,0,161,0,256.0013956,,,,,,,,,255.9584855,10,256.0013956,256.0013956,0.028699542,257.3220488,[-0.11444444444444445],[0.08444444444444445],[1],[0],[0],[1.3354063329752535],['target'],,,,AN,1,2024-10-04_11h21.46.712,V3,2024.1.5,2024-10-04 11h21.52.492013 +0530
162,0,162,0,257.3689161,,,,,,,,,257.3261875,10,257.3689161,257.3689161,0.028539667,258.4846356,[-0.26],[0.22444444444444445],[1],[0],[0],[1.1303948749555275],['target'],,,,AN,1,2024-10-04_11h21.46.712,V3,2024.1.5,2024-10-04 11h21.52.492013 +0530
163,0,163,0,258.5306721,,,,,,,,,258.4887375,10,258.5306721,258.5306721,0.028208125,259.7329512,[0.08666666666666667],[0.3511111111111111],[1],[0],[0],[1.2166034169495106],['target'],,,,AN,1,2024-10-04_11h21.46.712,V3,2024.1.5,2024-10-04 11h21.52.492013 +0530
164,0,164,0,259.7621488,,,,,,,,,259.7371179,5,259.7621488,259.7621488,0.015209583,261.1382694,[-0.19444444444444445],[0.12777777777777777],[1],[0],[0],[1.3865815419703722],['target'],,,,AN,1,2024-10-04_11h21.46.712,V3,2024.1.5,2024-10-04 11h21.52.492013 +0530
165,0,165,0,261.1674788,,,,,,,,,261.142349,5,261.1674788,261.1674788,0.014845417,262.3810956,[0.25666666666666665],[0.044444444444444446],[1],[0],[0],[1.2245192909613252],['target'],,,,AN,1,2024-10-04_11h21.46.712,V3,2024.1.5,2024-10-04 11h21.52.492013 +0530
166,0,166,0,262.4100792,,,,,,,,,262.3851866,5,262.4100792,262.4100792,0.014819625,264.1482367,[-0.18777777777777777],[-0.27666666666666667],[1],[0],[0],[1.7488253329647705],['target'],,,,AN,1,2024-10-04_11h21.46.712,V3,2024.1.5,2024-10-04 11h21.52.492013 +0530
167,0,167,0,264.1774126,,,,,,,,,264.1523629,5,264.1774126,264.1774126,0.015190375,266.2710704,[-0.39],[-0.12333333333333334],[1],[0],[0],[2.10415308305528],['target'],,,,AN,1,2024-10-04_11h21.46.712,V3,2024.1.5,2024-10-04 11h21.52.492013 +0530
168,0,168,0,266.317497,,,,,,,,,266.2751831,10,266.317497,266.317497,0.028398166,267.6006468,[-0.48],[-0.19111111111111112],[1],[0],[0],[1.297663667006418],['target'],,,,AN,1,2024-10-04_11h21.46.712,V3,2024.1.5,2024-10-04 11h21.52.492013 +0530
169,0,169,0,267.6470805,,,,,,,,,267.6047446,10,267.6470805,267.6470805,0.02824125,269.2321735,[-0.29333333333333333],[0.37555555555555553],[1],[0],[0],[1.599756333976984],['target'],,,,AN,1,2024-10-04_11h21.46.712,V3,2024.1.5,2024-10-04 11h21.52.492013 +0530
170,0,170,0,269.2634132,,,,,,,,,269.2363043,5,269.2634132,269.2634132,0.015252834,270.4320794,[-0.30444444444444446],[-0.04777777777777778],[1],[0],[0],[1.1811111249262467],['target'],,,,AN,1,2024-10-04_11h21.46.712,V3,2024.1.5,2024-10-04 11h21.52.492013 +0530
171,0,171,0,270.4611907,,,,,,,,,270.4361823,5,270.4611907,270.4611907,0.014772292,272.0479357,[-0.43222222222222223],[-0.45],[1],[0],[0],[1.5976218750001863],['target'],,,,AN,1,2024-10-04_11h21.46.712,V3,2024.1.5,2024-10-04 11h21.52.492013 +0530
172,0,172,0,272.0772086,,,,,,,,,272.0520409,5,272.0772086,272.0772086,0.015107416,273.431715,[-0.15444444444444444],[-0.08222222222222222],[1],[0],[0],[1.3651460419641808],['target'],,,,AN,1,2024-10-04_11h21.46.712,V3,2024.1.5,2024-10-04 11h21.52.492013 +0530
173,0,173,0,273.4783374,,,,,,,,,273.4358351,10,273.4783374,273.4783374,0.028402125,274.8371697,[-0.3111111111111111],[0.41888888888888887],[1],[0],[0],[1.3735154999885708],['target'],,,,AN,1,2024-10-04_11h21.46.712,V3,2024.1.5,2024-10-04 11h21.52.492013 +0530
174,0,174,0,274.8832379,,,,,,,,,274.8412646,10,274.8832379,274.8832379,0.028165166,276.4884862,[-0.3011111111111111],[-0.012222222222222223],[1],[0],[0],[1.6196146659785882],['target'],,,,AN,1,2024-10-04_11h21.46.712,V3,2024.1.5,2024-10-04 11h21.52.492013 +0530
175,0,175,0,276.517438,,,,,,,,,276.4925675,5,276.517438,276.517438,0.0151,278.6491569,[-0.11444444444444445],[-0.3788888888888889],[1],[0],[0],[2.142079917015508],['target'],,,,AN,1,2024-10-04_11h21.46.712,V3,2024.1.5,2024-10-04 11h21.52.492013 +0530
176,0,176,0,278.6957415,,,,,,,,,278.6532584,10,278.6957415,278.6957415,0.028295791,280.8956274,[0.20444444444444446],[-0.3811111111111111],[1],[0],[0],[2.214699542033486],['target'],,,,AN,1,2024-10-04_11h21.46.712,V3,2024.1.5,2024-10-04 11h21.52.492013 +0530
177,0,177,0,280.9246228,,,,,,,,,280.8997288,5,280.9246228,280.9246228,0.015057459,283.3156614,[-0.18],[-0.0033333333333333335],[1],[0],[0],[2.401475499966182],['target'],,,,AN,1,2024-10-04_11h21.46.712,V3,2024.1.5,2024-10-04 11h21.52.492013 +0530
178,0,178,0,283.3487496,,,,,,,,,283.319745,5,283.3487496,283.3487496,0.015240875,284.9386183,[0.31333333333333335],[0.4622222222222222],[1],[0],[0],[1.6042388750938699],['target'],,,,AN,1,2024-10-04_11h21.46.712,V3,2024.1.5,2024-10-04 11h21.52.492013 +0530
179,0,179,0,284.9850584,,,,,,,,,284.9427191,10,284.9850584,284.9850584,0.0284715,286.0189488,[0.17222222222222222],[0.4722222222222222],[1],[0],[0],[1.0483759159687907],['target'],,,,AN,1,2024-10-04_11h21.46.712,V3,2024.1.5,2024-10-04 11h21.52.492013 +0530
180,0,180,0,286.0481198,,,,,,,,,286.023058,5,286.0481198,286.0481198,0.015461667,287.6494413,[0.25],[-0.19444444444444445],[1],[0],[0],[1.6114504169672728],['target'],,,,AN,1,2024-10-04_11h21.46.712,V3,2024.1.5,2024-10-04 11h21.52.492013 +0530
181,0,181,0,287.6786262,,,,,,,,,287.653572,5,287.6786262,287.6786262,0.014883709,288.782525,[-0.15333333333333332],[-0.39444444444444443],[1],[0],[0],[1.114699124940671],['target'],,,,AN,1,2024-10-04_11h21.46.712,V3,2024.1.5,2024-10-04 11h21.52.492013 +0530
182,0,182,0,288.8331418,,,,,,,,,288.7866365,10,288.8331418,288.8331418,0.028185375,290.084417,[-0.02666666666666667],[0.33666666666666667],[1],[0],[0],[1.2702499999431893],['target'],,,,AN,1,2024-10-04_11h21.46.712,V3,2024.1.5,2024-10-04 11h21.52.492013 +0530
183,0,183,0,290.1132145,,,,,,,,,290.0885439,5,290.1132145,290.1132145,0.014831833,290.9722177,[0.05555555555555555],[0.12222222222222222],[1],[0],[0],[0.8694617080036551],['target'],,,,AN,1,2024-10-04_11h21.46.712,V3,2024.1.5,2024-10-04 11h21.52.492013 +0530
184,0,184,0,291.0186079,,,,,,,,,290.9762791,10,291.0186079,291.0186079,0.028543833,293.0511458,[-0.19555555555555557],[-0.014444444444444444],[1],[0],[0],[2.046932708006352],['target'],,,,AN,1,2024-10-04_11h21.46.712,V3,2024.1.5,2024-10-04 11h21.52.492013 +0530
185,0,185,0,293.0801187,,,,,,,,,293.0552869,5,293.0801187,293.0801187,0.015031458,294.8165961,[-0.13777777777777778],[-0.08333333333333333],[1],[0],[0],[1.7469387500314042],['target'],,,,AN,1,2024-10-04_11h21.46.712,V3,2024.1.5,2024-10-04 11h21.52.492013 +0530
186,0,186,0,294.864793,,,,,,,,,294.8206857,10,294.864793,294.864793,0.028294334,296.6335579,[-0.03111111111111111],[-0.22],[1],[0],[0],[1.7851909999735653],['target'],,,,AN,1,2024-10-04_11h21.46.712,V3,2024.1.5,2024-10-04 11h21.52.492013 +0530
187,0,187,0,296.6816969,,,,,,,,,296.6377065,10,296.6816969,296.6816969,0.030054667,298.2759752,[0.36777777777777776],[0.3511111111111111],[1],[0],[0],[1.60885583399795],['target'],,,,AN,1,2024-10-04_11h21.46.712,V3,2024.1.5,2024-10-04 11h21.52.492013 +0530
188,0,188,0,298.3052669,,,,,,,,,298.280111,5,298.3052669,298.3052669,0.015341666,300.122061,[-0.49],[-0.48333333333333334],[1],[0],[0],[1.8272186249960214],['target'],,,,AN,1,2024-10-04_11h21.46.712,V3,2024.1.5,2024-10-04 11h21.52.492013 +0530
189,0,189,0,300.1509099,,,,,,,,,300.1261328,5,300.1509099,300.1509099,0.014894791,301.6057645,[0.31666666666666665],[0.3933333333333333],[1],[0],[0],[1.4653365419944748],['target'],,,,AN,1,2024-10-04_11h21.46.712,V3,2024.1.5,2024-10-04 11h21.52.492013 +0530
190,0,190,0,301.6521182,,,,,,,,,301.6098433,10,301.6521182,301.6521182,0.028415584,303.8680928,[0.37777777777777777],[-0.37777777777777777],[1],[0],[0],[2.23043566592969],['target'],,,,AN,1,2024-10-04_11h21.46.712,V3,2024.1.5,2024-10-04 11h21.52.492013 +0530
191,0,191,0,303.9155056,,,,,,,,,303.8721961,10,303.9155056,303.9155056,0.028439,305.7195636,[0.4211111111111111],[-0.3711111111111111],[1],[0],[0],[1.8195152910193428],['target'],,,,AN,1,2024-10-04_11h21.46.712,V3,2024.1.5,2024-10-04 11h21.52.492013 +0530
192,0,192,0,305.7485446,,,,,,,,,305.7236894,5,305.7485446,305.7485446,0.014997375,306.9516001,[0.2288888888888889],[-0.27111111111111114],[1],[0],[0],[1.2135009999619797],['target'],,,,AN,1,2024-10-04_11h21.46.712,V3,2024.1.5,2024-10-04 11h21.52.492013 +0530
193,0,193,0,306.9980346,,,,,,,,,306.9556715,10,306.9980346,306.9980346,0.028493167,308.7020415,[0.23222222222222222],[0.023333333333333334],[1],[0],[0],[1.7184910419164225],['target'],,,,AN,1,2024-10-04_11h21.46.712,V3,2024.1.5,2024-10-04 11h21.52.492013 +0530
194,0,194,0,308.7309815,,,,,,,,,308.7061612,5,308.7309815,308.7309815,0.015094417,310.2248476,[0.4922222222222222],[-0.19],[1],[0],[0],[1.504097625031136],['target'],,,,AN,1,2024-10-04_11h21.46.712,V3,2024.1.5,2024-10-04 11h21.52.492013 +0530
195,0,195,0,310.2564041,,,,,,,,,310.2296958,5,310.2564041,310.2564041,0.016810666,311.6894912,[0.034444444444444444],[0.38333333333333336],[1],[0],[0],[1.44375266705174],['target'],,,,AN,1,2024-10-04_11h21.46.712,V3,2024.1.5,2024-10-04 11h21.52.492013 +0530
196,0,196,0,311.7185134,,,,,,,,,311.6935828,5,311.7185134,311.7185134,0.014949666,313.0395036,[0.38],[0.3655555555555556],[1],[0],[0],[1.3315690830349922],['target'],,,,AN,1,2024-10-04_11h21.46.712,V3,2024.1.5,2024-10-04 11h21.52.492013 +0530
197,0,197,0,313.0690618,,,,,,,,,313.0436069,5,313.0690618,313.0690618,0.014860958,314.1326637,[-0.08555555555555555],[0.18444444444444444],[1],[0],[0],[1.0748234160710126],['target'],,,,AN,1,2024-10-04_11h21.46.712,V3,2024.1.5,2024-10-04 11h21.52.492013 +0530
198,0,198,0,314.1616899,,,,,,,,,314.1368033,5,314.1616899,314.1616899,0.014804459,315.2500304,[-0.22444444444444445],[0.33555555555555555],[1],[0],[0],[1.0989834580104798],['target'],,,,AN,1,2024-10-04_11h21.46.712,V3,2024.1.5,2024-10-04 11h21.52.492013 +0530
199,0,199,0,315.2790018,,,,,,,,,315.2541346,5,315.2790018,315.2790018,0.014734334,316.8064939,[-0.006666666666666667],[-0.42],[1],[0],[0],[1.5382142920279875],['target'],,,,AN,1,2024-10-04_11h21.46.712,V3,2024.1.5,2024-10-04 11h21.52.492013 +0530
,,,,,,,,,,,,,,,,,,,,,,,,,,316.80975,316.8199962,319.8115282,AN,1,2024-10-04_11h21.46.712,V3,2024.1.5,2024-10-04 11h21.52.492013 +0530