trials.thisRepN,trials.thisTrialN,trials.thisN,trials.thisIndex,thisRow.t,notes,ins.started,text.started,key_resp.started,ins.stopped,key_resp.keys,key_resp.rt,key_resp.duration,trial.started,num_distr,Fixation.started,target.started,mouse.started,trial.stopped,mouse.x,mouse.y,mouse.leftButton,mouse.midButton,mouse.rightButton,mouse.time,mouse.clicked_name,thanks.started,text_2.started,thanks.stopped,participant,session,date,expName,psychopyVersion,expStart
,,,,,,0.051431833,0.083354666,0.083354666,11.17193725,space,11.08229517,None,,,,,,,,,,,,,,,,,AR,1,2024-10-04_11h35.34.305,V3,2024.1.5,2024-10-04 11h35.49.420678 +0530
0,0,0,0,11.23511242,,,,,,,,,11.18111021,5,11.23511242,11.23511242,0.04029,14.11785958,[0.10333333333333333],[-0.2922222222222222],[0],[0],[0],[2.9051032920833677],['target'],,,,AR,1,2024-10-04_11h35.34.305,V3,2024.1.5,2024-10-04 11h35.49.420678 +0530
1,0,1,0,14.16661617,,,,,,,,,14.12324013,10,14.16661617,14.16661617,0.029425166,18.03366079,[-0.19333333333333333],[0.07111111111111111],[0],[0],[0],[3.8815760830184445],['target'],,,,AR,1,2024-10-04_11h35.34.305,V3,2024.1.5,2024-10-04 11h35.49.420678 +0530
2,0,2,0,18.08069375,,,,,,,,,18.03772363,10,18.08069375,18.08069375,0.029036167,21.30696454,[0.4577777777777778],[0.02],[1],[0],[0],[3.2408024170435965],['target'],,,,AR,1,2024-10-04_11h35.34.305,V3,2024.1.5,2024-10-04 11h35.49.420678 +0530
3,0,3,0,21.35421929,,,,,,,,,21.31098208,10,21.35421929,21.35421929,0.028834709,24.4121375,[-0.17333333333333334],[0.2644444444444444],[1],[0],[0],[3.072839333093725],['target'],,,,AR,1,2024-10-04_11h35.34.305,V3,2024.1.5,2024-10-04 11h35.49.420678 +0530
4,0,4,0,24.44200913,,,,,,,,,24.41624858,5,24.44200913,24.44200913,0.0155365,26.67505204,[-0.45555555555555555],[-0.41333333333333333],[1],[0],[0],[2.243880874942988],['target'],,,,AR,1,2024-10-04_11h35.34.305,V3,2024.1.5,2024-10-04 11h35.49.420678 +0530
5,0,5,0,26.72225604,,,,,,,,,26.67903467,10,26.72225604,26.72225604,0.0290015,29.58345838,[0.2411111111111111],[0.33666666666666667],[1],[0],[0],[2.875846542068757],['target'],,,,AR,1,2024-10-04_11h35.34.305,V3,2024.1.5,2024-10-04 11h35.49.420678 +0530
6,0,6,0,29.61412296,,,,,,,,,29.58759258,5,29.61412296,29.61412296,0.015676542,31.09157983,[-0.06],[0.013333333333333334],[1],[0],[0],[1.4889190000249073],['target'],,,,AR,1,2024-10-04_11h35.34.305,V3,2024.1.5,2024-10-04 11h35.49.420678 +0530
7,0,7,0,31.13910838,,,,,,,,,31.09555787,10,31.13910838,31.13910838,0.029117542,33.7200325,[0.47444444444444445],[-0.2477777777777778],[1],[0],[0],[2.5959380409913138],['target'],,,,AR,1,2024-10-04_11h35.34.305,V3,2024.1.5,2024-10-04 11h35.49.420678 +0530
8,0,8,0,33.76725188,,,,,,,,,33.72409625,10,33.76725188,33.76725188,0.028869584,38.60842067,[-0.21777777777777776],[-0.30333333333333334],[1],[0],[0],[4.856049666996114],['target'],,,,AR,1,2024-10-04_11h35.34.305,V3,2024.1.5,2024-10-04 11h35.49.420678 +0530
9,0,9,0,38.63797125,,,,,,,,,38.61243854,5,38.63797125,38.63797125,0.015442667,40.66993292,[-0.3988888888888889],[0.4622222222222222],[1],[0],[0],[2.042629165924154],['target'],,,,AR,1,2024-10-04_11h35.34.305,V3,2024.1.5,2024-10-04 11h35.49.420678 +0530
10,0,10,0,40.69965963,,,,,,,,,40.67393429,5,40.69965963,40.69965963,0.015165167,42.89194337,[-0.03333333333333333],[-0.18444444444444444],[1],[0],[0],[2.203418708057143],['target'],,,,AR,1,2024-10-04_11h35.34.305,V3,2024.1.5,2024-10-04 11h35.49.420678 +0530
11,0,11,0,42.92120479,,,,,,,,,42.89593546,5,42.92120479,42.92120479,0.015118167,44.4415285,[-0.2088888888888889],[-0.07555555555555556],[1],[0],[0],[1.5309946249471977],['target'],,,,AR,1,2024-10-04_11h35.34.305,V3,2024.1.5,2024-10-04 11h35.49.420678 +0530
12,0,12,0,44.48875629,,,,,,,,,44.44553821,10,44.48875629,44.48875629,0.028848333,48.58704496,[-0.30777777777777776],[0.051111111111111114],[1],[0],[0],[4.113228791975416],['target'],,,,AR,1,2024-10-04_11h35.34.305,V3,2024.1.5,2024-10-04 11h35.49.420678 +0530
13,0,13,0,48.61668096,,,,,,,,,48.59108421,5,48.61668096,48.61668096,0.015571292,50.10906079,[0.10888888888888888],[-0.17444444444444446],[1],[0],[0],[1.5029105839785188],['target'],,,,AR,1,2024-10-04_11h35.34.305,V3,2024.1.5,2024-10-04 11h35.49.420678 +0530
14,0,14,0,50.13840763,,,,,,,,,50.11308854,5,50.13840763,50.13840763,0.015015,52.43567163,[-0.4866666666666667],[0.09888888888888889],[1],[0],[0],[2.3081600420409814],['target'],,,,AR,1,2024-10-04_11h35.34.305,V3,2024.1.5,2024-10-04 11h35.49.420678 +0530
15,0,15,0,52.46495588,,,,,,,,,52.43965663,5,52.46495588,52.46495588,0.014968125,54.49904417,[-0.35888888888888887],[-0.08555555555555555],[1],[0],[0],[2.044993291958235],['target'],,,,AR,1,2024-10-04_11h35.34.305,V3,2024.1.5,2024-10-04 11h35.49.420678 +0530
16,0,16,0,54.54728821,,,,,,,,,54.50315421,10,54.54728821,54.54728821,0.029360792,61.14115867,[0.45555555555555555],[0.07777777777777778],[1],[0],[0],[6.609153249999508],['target'],,,,AR,1,2024-10-04_11h35.34.305,V3,2024.1.5,2024-10-04 11h35.49.420678 +0530
17,0,17,0,61.17084413,,,,,,,,,61.14520742,5,61.17084413,61.17084413,0.015459458,63.23254921,[-0.2511111111111111],[0.41444444444444445],[1],[0],[0],[2.072488083038479],['target'],,,,AR,1,2024-10-04_11h35.34.305,V3,2024.1.5,2024-10-04 11h35.49.420678 +0530
18,0,18,0,63.27985954,,,,,,,,,63.2365685,10,63.27985954,63.27985954,0.028855875,65.56732904,[-0.23666666666666666],[-0.19333333333333333],[0],[0],[0],[2.30250279197935],['target'],,,,AR,1,2024-10-04_11h35.34.305,V3,2024.1.5,2024-10-04 11h35.49.420678 +0530
19,0,19,0,65.61396175,,,,,,,,,65.57133808,10,65.61396175,65.61396175,0.028796375,67.32110804,[0.1322222222222222],[0.21777777777777776],[1],[0],[0],[1.721590374945663],['target'],,,,AR,1,2024-10-04_11h35.34.305,V3,2024.1.5,2024-10-04 11h35.49.420678 +0530
20,0,20,0,67.35043521,,,,,,,,,67.32519658,5,67.35043521,67.35043521,0.015225166,69.10954813,[-0.13777777777777778],[-0.12333333333333334],[1],[0],[0],[1.7696847080951557],['target'],,,,AR,1,2024-10-04_11h35.34.305,V3,2024.1.5,2024-10-04 11h35.49.420678 +0530
21,0,21,0,69.1389265,,,,,,,,,69.11351883,5,69.1389265,69.1389265,0.015088584,73.41015142,[-0.48333333333333334],[-0.38555555555555554],[1],[0],[0],[4.28210341592785],['target'],,,,AR,1,2024-10-04_11h35.34.305,V3,2024.1.5,2024-10-04 11h35.49.420678 +0530
22,0,22,0,73.45785175,,,,,,,,,73.41419854,10,73.45785175,73.45785175,0.029238625,75.20484896,[-0.14222222222222222],[-0.022222222222222223],[1],[0],[0],[1.762027290998958],['target'],,,,AR,1,2024-10-04_11h35.34.305,V3,2024.1.5,2024-10-04 11h35.49.420678 +0530
23,0,23,0,75.25197033,,,,,,,,,75.20887271,10,75.25197033,75.25197033,0.028823208,78.91531408,[0.33111111111111113],[-0.10666666666666667],[1],[0],[0],[3.677110458025709],['target'],,,,AR,1,2024-10-04_11h35.34.305,V3,2024.1.5,2024-10-04 11h35.49.420678 +0530
24,0,24,0,78.98049238,,,,,,,,,78.9221995,10,78.98049238,78.98049238,0.041360625,80.40586317,[-0.2688888888888889],[0.09222222222222222],[1],[0],[0],[1.443409040919505],['target'],,,,AR,1,2024-10-04_11h35.34.305,V3,2024.1.5,2024-10-04 11h35.49.420678 +0530
25,0,25,0,80.45420525,,,,,,,,,80.4100265,10,80.45420525,80.45420525,0.029603208,82.08327092,[0.45],[-0.08],[1],[0],[0],[1.6442220840835944],['target'],,,,AR,1,2024-10-04_11h35.34.305,V3,2024.1.5,2024-10-04 11h35.49.420678 +0530
26,0,26,0,82.13111621,,,,,,,,,82.08735046,10,82.13111621,82.13111621,0.029014625,83.83105221,[0.3433333333333333],[-0.4388888888888889],[1],[0],[0],[1.7152844170341268],['target'],,,,AR,1,2024-10-04_11h35.34.305,V3,2024.1.5,2024-10-04 11h35.49.420678 +0530
27,0,27,0,83.86064763,,,,,,,,,83.8350975,5,83.86064763,83.86064763,0.015252416,85.89409571,[-0.43666666666666665],[-0.3011111111111111],[1],[0],[0],[2.0443154589738697],['target'],,,,AR,1,2024-10-04_11h35.34.305,V3,2024.1.5,2024-10-04 11h35.49.420678 +0530
28,0,28,0,85.94179004,,,,,,,,,85.89824392,10,85.94179004,85.94179004,0.029101167,88.20424521,[0.11222222222222222],[0.30777777777777776],[1],[0],[0],[2.2773744580335915],['target'],,,,AR,1,2024-10-04_11h35.34.305,V3,2024.1.5,2024-10-04 11h35.49.420678 +0530
29,0,29,0,88.25241596,,,,,,,,,88.20846029,10,88.25241596,88.25241596,0.029267542,89.67338621,[-0.01888888888888889],[0.12],[1],[0],[0],[1.436235083034262],['target'],,,,AR,1,2024-10-04_11h35.34.305,V3,2024.1.5,2024-10-04 11h35.49.420678 +0530
30,0,30,0,89.72054554,,,,,,,,,89.67745354,10,89.72054554,89.72054554,0.028757667,91.70612696,[0.35777777777777775],[-0.48444444444444446],[1],[0],[0],[2.000503708026372],['target'],,,,AR,1,2024-10-04_11h35.34.305,V3,2024.1.5,2024-10-04 11h35.49.420678 +0530
31,0,31,0,91.75371025,,,,,,,,,91.7101665,10,91.75371025,91.75371025,0.028865875,93.15385342,[0.2388888888888889],[-0.3088888888888889],[1],[0],[0],[1.415347749949433],['target'],,,,AR,1,2024-10-04_11h35.34.305,V3,2024.1.5,2024-10-04 11h35.49.420678 +0530
32,0,32,0,93.20143525,,,,,,,,,93.157967,10,93.20143525,93.20143525,0.028847083,96.40488233,[0.4677777777777778],[0.14],[1],[0],[0],[3.2186538750538602],['target'],,,,AR,1,2024-10-04_11h35.34.305,V3,2024.1.5,2024-10-04 11h35.49.420678 +0530
33,0,33,0,96.43463158,,,,,,,,,96.40896704,5,96.43463158,96.43463158,0.015288875,99.69437271,[0.28],[-0.46444444444444444],[1],[0],[0],[3.27069983293768],['target'],,,,AR,1,2024-10-04_11h35.34.305,V3,2024.1.5,2024-10-04 11h35.49.420678 +0530
34,0,34,0,99.74173792,,,,,,,,,99.69839071,10,99.74173792,99.74173792,0.028702666,101.5393623,[0.3244444444444444],[-0.052222222222222225],[1],[0],[0],[1.8128384170122445],['target'],,,,AR,1,2024-10-04_11h35.34.305,V3,2024.1.5,2024-10-04 11h35.49.420678 +0530
35,0,35,0,101.568815,,,,,,,,,101.5434408,5,101.568815,101.568815,0.015247083,103.2109497,[0.19777777777777777],[-0.17222222222222222],[1],[0],[0],[1.6528684999793768],['target'],,,,AR,1,2024-10-04_11h35.34.305,V3,2024.1.5,2024-10-04 11h35.49.420678 +0530
36,0,36,0,103.2590842,,,,,,,,,103.2151082,10,103.2590842,103.2590842,0.029164125,104.9723121,[0.19555555555555557],[0.33555555555555555],[1],[0],[0],[1.7286427919752896],['target'],,,,AR,1,2024-10-04_11h35.34.305,V3,2024.1.5,2024-10-04 11h35.49.420678 +0530
37,0,37,0,105.0032799,,,,,,,,,104.9763937,5,105.0032799,105.0032799,0.016743292,107.2945447,[-0.4888888888888889],[-0.18444444444444444],[1],[0],[0],[2.3019140829565004],['target'],,,,AR,1,2024-10-04_11h35.34.305,V3,2024.1.5,2024-10-04 11h35.49.420678 +0530
38,0,38,0,107.324064,,,,,,,,,107.2986097,5,107.324064,107.324064,0.015106,108.7607618,[-0.13666666666666666],[0.17],[1],[0],[0],[1.4476257080677897],['target'],,,,AR,1,2024-10-04_11h35.34.305,V3,2024.1.5,2024-10-04 11h35.49.420678 +0530
39,0,39,0,108.8083845,,,,,,,,,108.7647839,10,108.8083845,108.8083845,0.028815209,110.2216231,[0.017777777777777778],[-0.38666666666666666],[1],[0],[0],[1.4286134160356596],['target'],,,,AR,1,2024-10-04_11h35.34.305,V3,2024.1.5,2024-10-04 11h35.49.420678 +0530
40,0,40,0,110.2511387,,,,,,,,,110.2256994,5,110.2511387,110.2511387,0.01510575,111.6876312,[0.3788888888888889],[0.4177777777777778],[1],[0],[0],[1.4474232920911163],['target'],,,,AR,1,2024-10-04_11h35.34.305,V3,2024.1.5,2024-10-04 11h35.49.420678 +0530
41,0,41,0,111.7348899,,,,,,,,,111.691648,10,111.7348899,111.7348899,0.028683333,112.9224568,[0.32666666666666666],[0.4177777777777778],[1],[0],[0],[1.202629000064917],['target'],,,,AR,1,2024-10-04_11h35.34.305,V3,2024.1.5,2024-10-04 11h35.49.420678 +0530
42,0,42,0,112.9522746,,,,,,,,,112.9265799,5,112.9522746,112.9522746,0.015392709,114.011726,[0.2544444444444444],[0.43444444444444447],[1],[0],[0],[1.0702622500248253],['target'],,,,AR,1,2024-10-04_11h35.34.305,V3,2024.1.5,2024-10-04 11h35.49.420678 +0530
43,0,43,0,114.0591641,,,,,,,,,114.0156939,10,114.0591641,114.0591641,0.028949833,115.893845,[-0.39444444444444443],[0.2722222222222222],[1],[0],[0],[1.8497181669808924],['target'],,,,AR,1,2024-10-04_11h35.34.305,V3,2024.1.5,2024-10-04 11h35.49.420678 +0530
44,0,44,0,115.9411673,,,,,,,,,115.8979351,10,115.9411673,115.9411673,0.028656083,117.4902808,[0.3488888888888889],[0.3188888888888889],[1],[0],[0],[1.5642606250476092],['target'],,,,AR,1,2024-10-04_11h35.34.305,V3,2024.1.5,2024-10-04 11h35.49.420678 +0530
45,0,45,0,117.5199376,,,,,,,,,117.494351,5,117.5199376,117.5199376,0.015341416,118.7540675,[-0.06444444444444444],[0.022222222222222223],[1],[0],[0],[1.2449739169096574],['target'],,,,AR,1,2024-10-04_11h35.34.305,V3,2024.1.5,2024-10-04 11h35.49.420678 +0530
46,0,46,0,118.801247,,,,,,,,,118.7581197,10,118.801247,118.801247,0.028490292,120.2238224,[0.08222222222222222],[-0.2588888888888889],[1],[0],[0],[1.4377030419418588],['target'],,,,AR,1,2024-10-04_11h35.34.305,V3,2024.1.5,2024-10-04 11h35.49.420678 +0530
47,0,47,0,120.2536289,,,,,,,,,120.2278973,5,120.2536289,120.2536289,0.015487292,123.2050363,[-0.41888888888888887],[0.33111111111111113],[1],[0],[0],[2.9621476670727134],['target'],,,,AR,1,2024-10-04_11h35.34.305,V3,2024.1.5,2024-10-04 11h35.49.420678 +0530
48,0,48,0,123.2529065,,,,,,,,,123.209242,10,123.2529065,123.2529065,0.029232708,125.7596018,[-0.3688888888888889],[0.4666666666666667],[1],[0],[0],[2.5217538750730455],[],,,,AR,1,2024-10-04_11h35.34.305,V3,2024.1.5,2024-10-04 11h35.49.420678 +0530
49,0,49,0,125.7891481,,,,,,,,,125.7636354,5,125.7891481,125.7891481,0.01513725,128.4615358,[0.4077777777777778],[-0.4477777777777778],[1],[0],[0],[2.6833351249806583],['target'],,,,AR,1,2024-10-04_11h35.34.305,V3,2024.1.5,2024-10-04 11h35.49.420678 +0530
50,0,50,0,128.4909617,,,,,,,,,128.4655477,5,128.4909617,128.4909617,0.01503575,130.8298305,[0.006666666666666667],[-0.3377777777777778],[1],[0],[0],[2.3497688330244273],['target'],,,,AR,1,2024-10-04_11h35.34.305,V3,2024.1.5,2024-10-04 11h35.49.420678 +0530
51,0,51,0,130.8602828,,,,,,,,,130.8339407,5,130.8602828,130.8602828,0.015387958,132.9365468,[-0.05444444444444444],[0.31444444444444447],[1],[0],[0],[2.0875861670356244],['target'],,,,AR,1,2024-10-04_11h35.34.305,V3,2024.1.5,2024-10-04 11h35.49.420678 +0530
52,0,52,0,132.9851926,,,,,,,,,132.9430169,5,132.9851926,132.9851926,0.026538791,135.1547946,[-0.14444444444444443],[-0.22111111111111112],[1],[0],[0],[2.186371042043902],['target'],,,,AR,1,2024-10-04_11h35.34.305,V3,2024.1.5,2024-10-04 11h35.49.420678 +0530
53,0,53,0,135.2025437,,,,,,,,,135.158833,10,135.2025437,135.2025437,0.029130459,136.6731132,[0.06444444444444444],[0.18444444444444444],[1],[0],[0],[1.4856780420523137],['target'],,,,AR,1,2024-10-04_11h35.34.305,V3,2024.1.5,2024-10-04 11h35.49.420678 +0530
54,0,54,0,136.7026148,,,,,,,,,136.6772229,5,136.7026148,136.7026148,0.015650667,138.1383588,[0.035555555555555556],[-0.3322222222222222],[1],[0],[0],[1.4461067919619381],['target'],,,,AR,1,2024-10-04_11h35.34.305,V3,2024.1.5,2024-10-04 11h35.49.420678 +0530
55,0,55,0,138.1679126,,,,,,,,,138.1423461,5,138.1679126,138.1679126,0.014953875,138.2616185,[0.035555555555555556],[-0.3322222222222222],[1],[0],[0],[0.10488158301450312],[],,,,AR,1,2024-10-04_11h35.34.305,V3,2024.1.5,2024-10-04 11h35.49.420678 +0530
56,0,56,0,138.2910573,,,,,,,,,138.2656344,5,138.2910573,138.2910573,0.015004,140.0882125,[-0.35777777777777775],[0.17222222222222222],[1],[0],[0],[1.8081487079616636],['target'],,,,AR,1,2024-10-04_11h35.34.305,V3,2024.1.5,2024-10-04 11h35.49.420678 +0530
57,0,57,0,140.1356372,,,,,,,,,140.0922753,10,140.1356372,140.1356372,0.028752334,142.1825622,[-0.08555555555555555],[-0.2],[1],[0],[0],[2.0621118750423193],['target'],,,,AR,1,2024-10-04_11h35.34.305,V3,2024.1.5,2024-10-04 11h35.49.420678 +0530
58,0,58,0,142.2128795,,,,,,,,,142.1867429,5,142.2128795,142.2128795,0.015757709,143.7794118,[0.24444444444444444],[0.33111111111111113],[1],[0],[0],[1.5775167919928208],['target'],,,,AR,1,2024-10-04_11h35.34.305,V3,2024.1.5,2024-10-04 11h35.49.420678 +0530
59,0,59,0,143.8092527,,,,,,,,,143.7834903,5,143.8092527,143.8092527,0.015147042,145.8016928,[-0.3022222222222222],[-0.31444444444444447],[1],[0],[0],[2.0036669579567388],['target'],,,,AR,1,2024-10-04_11h35.34.305,V3,2024.1.5,2024-10-04 11h35.49.420678 +0530
60,0,60,0,145.8308785,,,,,,,,,145.8057046,5,145.8308785,145.8308785,0.0151275,147.3549794,[0.16777777777777778],[0.2722222222222222],[1],[0],[0],[1.5347535830223933],['target'],,,,AR,1,2024-10-04_11h35.34.305,V3,2024.1.5,2024-10-04 11h35.49.420678 +0530
61,0,61,0,147.3844799,,,,,,,,,147.3590103,5,147.3844799,147.3844799,0.01530225,149.0850876,[-0.22111111111111112],[0.14666666666666667],[1],[0],[0],[1.7113561250735074],['target'],,,,AR,1,2024-10-04_11h35.34.305,V3,2024.1.5,2024-10-04 11h35.49.420678 +0530
62,0,62,0,149.1324983,,,,,,,,,149.089082,10,149.1324983,149.1324983,0.028792084,150.440385,[0.3811111111111111],[-0.11666666666666667],[1],[0],[0],[1.3230874999426305],['target'],,,,AR,1,2024-10-04_11h35.34.305,V3,2024.1.5,2024-10-04 11h35.49.420678 +0530
63,0,63,0,150.4698041,,,,,,,,,150.4444147,5,150.4698041,150.4698041,0.015202958,151.9957751,[-0.38],[0.34555555555555556],[1],[0],[0],[1.5366454579634592],['target'],,,,AR,1,2024-10-04_11h35.34.305,V3,2024.1.5,2024-10-04 11h35.49.420678 +0530
64,0,64,0,152.0432879,,,,,,,,,151.9997832,10,152.0432879,152.0432879,0.028840875,154.2864648,[-0.2866666666666667],[-0.48],[1],[0],[0],[2.258385834051296],['target'],,,,AR,1,2024-10-04_11h35.34.305,V3,2024.1.5,2024-10-04 11h35.49.420678 +0530
65,0,65,0,154.3158354,,,,,,,,,154.2905375,5,154.3158354,154.3158354,0.015162667,156.2388407,[0.1288888888888889],[0.06444444444444444],[1],[0],[0],[1.9336949998978525],['target'],,,,AR,1,2024-10-04_11h35.34.305,V3,2024.1.5,2024-10-04 11h35.49.420678 +0530
66,0,66,0,156.2689929,,,,,,,,,156.2429946,5,156.2689929,156.2689929,0.015478,157.495772,[-0.19555555555555557],[0.08666666666666667],[1],[0],[0],[1.2379387500695884],['target'],,,,AR,1,2024-10-04_11h35.34.305,V3,2024.1.5,2024-10-04 11h35.49.420678 +0530
67,0,67,0,157.525238,,,,,,,,,157.4997721,5,157.525238,157.525238,0.014940708,158.6956809,[0.3088888888888889],[0.39555555555555555],[1],[0],[0],[1.1814560409402475],['target'],,,,AR,1,2024-10-04_11h35.34.305,V3,2024.1.5,2024-10-04 11h35.49.420678 +0530
68,0,68,0,158.743241,,,,,,,,,158.6997175,10,158.743241,158.743241,0.028967375,161.3782469,[0.47888888888888886],[0.18555555555555556],[1],[0],[0],[2.6501362090930343],['target'],,,,AR,1,2024-10-04_11h35.34.305,V3,2024.1.5,2024-10-04 11h35.49.420678 +0530
69,0,69,0,161.4255383,,,,,,,,,161.3823195,10,161.4255383,161.4255383,0.028662042,162.7789158,[0.03222222222222222],[0.08888888888888889],[1],[0],[0],[1.368505374994129],['target'],,,,AR,1,2024-10-04_11h35.34.305,V3,2024.1.5,2024-10-04 11h35.49.420678 +0530
70,0,70,0,162.8081723,,,,,,,,,162.782933,5,162.8081723,162.8081723,0.015154875,164.2621448,[-0.4111111111111111],[0.012222222222222223],[1],[0],[0],[1.464633374940604],['target'],,,,AR,1,2024-10-04_11h35.34.305,V3,2024.1.5,2024-10-04 11h35.49.420678 +0530
71,0,71,0,164.291701,,,,,,,,,164.2661413,5,164.291701,164.291701,0.014902333,166.7280706,[-0.47333333333333333],[0.48444444444444446],[1],[0],[0],[2.447490749997087],['target'],,,,AR,1,2024-10-04_11h35.34.305,V3,2024.1.5,2024-10-04 11h35.49.420678 +0530
72,0,72,0,166.7625495,,,,,,,,,166.7328158,5,166.7625495,166.7625495,0.017609209,168.0797838,[-0.18777777777777777],[0.39666666666666667],[1],[0],[0],[1.3301909170113504],['target'],,,,AR,1,2024-10-04_11h35.34.305,V3,2024.1.5,2024-10-04 11h35.49.420678 +0530
73,0,73,0,168.1274972,,,,,,,,,168.0838191,10,168.1274972,168.1274972,0.028907667,171.86885,[0.4588888888888889],[0.023333333333333334],[1],[0],[0],[3.756597499945201],['target'],,,,AR,1,2024-10-04_11h35.34.305,V3,2024.1.5,2024-10-04 11h35.49.420678 +0530
74,0,74,0,171.8985838,,,,,,,,,171.8729407,5,171.8985838,171.8985838,0.015144833,173.9963736,[-0.04111111111111111],[0.32222222222222224],[1],[0],[0],[2.108883291017264],['target'],,,,AR,1,2024-10-04_11h35.34.305,V3,2024.1.5,2024-10-04 11h35.49.420678 +0530
75,0,75,0,174.0444454,,,,,,,,,174.0005088,10,174.0444454,174.0444454,0.029286459,176.3121525,[-0.31],[-0.42333333333333334],[1],[0],[0],[2.282971250009723],['target'],,,,AR,1,2024-10-04_11h35.34.305,V3,2024.1.5,2024-10-04 11h35.49.420678 +0530
76,0,76,0,176.358975,,,,,,,,,176.3161915,10,176.358975,176.358975,0.028500583,177.6076041,[-0.3055555555555556],[-0.13333333333333333],[1],[0],[0],[1.2634410000173375],['target'],,,,AR,1,2024-10-04_11h35.34.305,V3,2024.1.5,2024-10-04 11h35.49.420678 +0530
77,0,77,0,177.655927,,,,,,,,,177.6116298,10,177.655927,177.655927,0.02925825,179.9596546,[-0.15777777777777777],[-0.28],[1],[0],[0],[2.3193532079458237],['target'],,,,AR,1,2024-10-04_11h35.34.305,V3,2024.1.5,2024-10-04 11h35.49.420678 +0530
78,0,78,0,179.9891396,,,,,,,,,179.9637419,5,179.9891396,179.9891396,0.015214959,182.9800359,[0.41444444444444445],[0.03],[1],[0],[0],[3.0016695000231266],['target'],,,,AR,1,2024-10-04_11h35.34.305,V3,2024.1.5,2024-10-04 11h35.49.420678 +0530
79,0,79,0,183.0096676,,,,,,,,,182.984039,5,183.0096676,183.0096676,0.01504075,184.179913,[-0.1322222222222222],[-0.24222222222222223],[1],[0],[0],[1.1813905420713127],['target'],,,,AR,1,2024-10-04_11h35.34.305,V3,2024.1.5,2024-10-04 11h35.49.420678 +0530
80,0,80,0,184.2274538,,,,,,,,,184.1839442,10,184.2274538,184.2274538,0.028706375,185.2731057,[-0.011111111111111112],[-0.3011111111111111],[1],[0],[0],[1.0610363330924883],['target'],,,,AR,1,2024-10-04_11h35.34.305,V3,2024.1.5,2024-10-04 11h35.49.420678 +0530
81,0,81,0,185.3039282,,,,,,,,,185.2771638,5,185.3039282,185.3039282,0.015201541,187.9728363,[-0.45555555555555555],[-0.4288888888888889],[1],[0],[0],[2.681055499939248],['target'],,,,AR,1,2024-10-04_11h35.34.305,V3,2024.1.5,2024-10-04 11h35.49.420678 +0530
82,0,82,0,188.0199316,,,,,,,,,187.9768931,10,188.0199316,188.0199316,0.028507375,189.9666659,[0.13333333333333333],[0.33555555555555555],[1],[0],[0],[1.9618545840494335],['target'],,,,AR,1,2024-10-04_11h35.34.305,V3,2024.1.5,2024-10-04 11h35.49.420678 +0530
83,0,83,0,190.0140789,,,,,,,,,189.9707126,10,190.0140789,190.0140789,0.02866575,191.6762234,[-0.1688888888888889],[0.24666666666666667],[1],[0],[0],[1.6773853750200942],['target'],,,,AR,1,2024-10-04_11h35.34.305,V3,2024.1.5,2024-10-04 11h35.49.420678 +0530
84,0,84,0,191.7230914,,,,,,,,,191.6802583,10,191.7230914,191.7230914,0.028508833,193.3305341,[-0.29777777777777775],[-0.39],[1],[0],[0],[1.6223359999712557],['target'],,,,AR,1,2024-10-04_11h35.34.305,V3,2024.1.5,2024-10-04 11h35.49.420678 +0530
85,0,85,0,193.3789515,,,,,,,,,193.3347482,10,193.3789515,193.3789515,0.029434375,194.5621321,[-0.11333333333333333],[0.021111111111111112],[1],[0],[0],[1.1985396669479087],['target'],,,,AR,1,2024-10-04_11h35.34.305,V3,2024.1.5,2024-10-04 11h35.49.420678 +0530
86,0,86,0,194.5915131,,,,,,,,,194.566208,5,194.5915131,194.5915131,0.015061125,196.547058,[-0.16111111111111112],[-0.4633333333333333],[1],[0],[0],[1.9663397499825805],['target'],,,,AR,1,2024-10-04_11h35.34.305,V3,2024.1.5,2024-10-04 11h35.49.420678 +0530
87,0,87,0,196.5766843,,,,,,,,,196.5510466,5,196.5766843,196.5766843,0.01508375,198.6468527,[0.13777777777777778],[0.4766666666666667],[1],[0],[0],[2.0812295420328155],['target'],,,,AR,1,2024-10-04_11h35.34.305,V3,2024.1.5,2024-10-04 11h35.49.420678 +0530
88,0,88,0,198.6969773,,,,,,,,,198.6510434,10,198.6969773,198.6969773,0.02993475,200.8338471,[0.19111111111111112],[0.11666666666666667],[1],[0],[0],[2.153456458938308],['target'],,,,AR,1,2024-10-04_11h35.34.305,V3,2024.1.5,2024-10-04 11h35.49.420678 +0530
89,0,89,0,200.8814205,,,,,,,,,200.8379254,10,200.8814205,200.8814205,0.0288475,202.4221608,[-0.11555555555555555],[-0.4866666666666667],[1],[0],[0],[1.555599124985747],['target'],,,,AR,1,2024-10-04_11h35.34.305,V3,2024.1.5,2024-10-04 11h35.49.420678 +0530
90,0,90,0,202.477413,,,,,,,,,202.4262888,10,202.477413,202.477413,0.036100625,204.4552459,[0.4288888888888889],[0.0044444444444444444],[0],[0],[0],[1.9934572910424322],['target'],,,,AR,1,2024-10-04_11h35.34.305,V3,2024.1.5,2024-10-04 11h35.49.420678 +0530
91,0,91,0,204.4848385,,,,,,,,,204.4594335,5,204.4848385,204.4848385,0.01571225,206.8399783,[0.3211111111111111],[0.11666666666666667],[1],[0],[0],[2.365426874952391],['target'],,,,AR,1,2024-10-04_11h35.34.305,V3,2024.1.5,2024-10-04 11h35.49.420678 +0530
92,0,92,0,206.8694544,,,,,,,,,206.8440336,5,206.8694544,206.8694544,0.014993583,208.056864,[0.42],[-0.058888888888888886],[1],[0],[0],[1.198401957983151],['target'],,,,AR,1,2024-10-04_11h35.34.305,V3,2024.1.5,2024-10-04 11h35.49.420678 +0530
93,0,93,0,208.1043372,,,,,,,,,208.0609558,10,208.1043372,208.1043372,0.028897625,209.6134382,[-0.3433333333333333],[0.18888888888888888],[1],[0],[0],[1.5242021250305697],['target'],,,,AR,1,2024-10-04_11h35.34.305,V3,2024.1.5,2024-10-04 11h35.49.420678 +0530
94,0,94,0,209.6428648,,,,,,,,,209.6174404,5,209.6428648,209.6428648,0.01500625,210.9515161,[0.13777777777777778],[0.47333333333333333],[1],[0],[0],[1.319463999941945],['target'],,,,AR,1,2024-10-04_11h35.34.305,V3,2024.1.5,2024-10-04 11h35.49.420678 +0530
95,0,95,0,210.999861,,,,,,,,,210.9555206,10,210.999861,210.999861,0.029408084,213.9960552,[0.14666666666666667],[-0.45555555555555555],[1],[0],[0],[3.011688750004396],['target'],,,,AR,1,2024-10-04_11h35.34.305,V3,2024.1.5,2024-10-04 11h35.49.420678 +0530
96,0,96,0,214.043918,,,,,,,,,214.0001518,10,214.043918,214.043918,0.028938042,215.2930395,[-0.13333333333333333],[-0.12222222222222222],[1],[0],[0],[1.2645121249370277],['target'],,,,AR,1,2024-10-04_11h35.34.305,V3,2024.1.5,2024-10-04 11h35.49.420678 +0530
97,0,97,0,215.3223041,,,,,,,,,215.2970704,5,215.3223041,215.3223041,0.015146708,216.7139661,[-0.23555555555555555],[0.3022222222222222],[1],[0],[0],[1.4023590419674292],['target'],,,,AR,1,2024-10-04_11h35.34.305,V3,2024.1.5,2024-10-04 11h35.49.420678 +0530
98,0,98,0,216.761254,,,,,,,,,216.7180223,10,216.761254,216.761254,0.02871525,218.868042,[0.4066666666666667],[-0.25],[1],[0],[0],[2.1217224579304457],['target'],,,,AR,1,2024-10-04_11h35.34.305,V3,2024.1.5,2024-10-04 11h35.49.420678 +0530
99,0,99,0,218.9148727,,,,,,,,,218.8720496,10,218.9148727,218.9148727,0.028238625,220.8077027,[0.03888888888888889],[0.38666666666666666],[1],[0],[0],[1.907970333006233],['target'],,,,AR,1,2024-10-04_11h35.34.305,V3,2024.1.5,2024-10-04 11h35.49.420678 +0530
100,0,100,0,220.8553438,,,,,,,,,220.8117674,10,220.8553438,220.8553438,0.028838666,223.5158106,[0.03777777777777778],[-0.18888888888888888],[1],[0],[0],[2.6757359160110354],['target'],,,,AR,1,2024-10-04_11h35.34.305,V3,2024.1.5,2024-10-04 11h35.49.420678 +0530
101,0,101,0,223.5459538,,,,,,,,,223.5199951,5,223.5459538,223.5459538,0.015691041,224.7304435,[0.2411111111111111],[-0.12777777777777777],[1],[0],[0],[1.19533037499059],['target'],,,,AR,1,2024-10-04_11h35.34.305,V3,2024.1.5,2024-10-04 11h35.49.420678 +0530
102,0,102,0,224.7771535,,,,,,,,,224.7344458,10,224.7771535,224.7771535,0.028357459,226.8742976,[-0.034444444444444444],[0.37222222222222223],[1],[0],[0],[2.1119762080488726],['target'],,,,AR,1,2024-10-04_11h35.34.305,V3,2024.1.5,2024-10-04 11h35.49.420678 +0530
103,0,103,0,226.9215415,,,,,,,,,226.8785442,10,226.9215415,226.9215415,0.028490542,228.6221344,[-0.23555555555555555],[-0.1511111111111111],[1],[0],[0],[1.7156675839796662],['target'],,,,AR,1,2024-10-04_11h35.34.305,V3,2024.1.5,2024-10-04 11h35.49.420678 +0530
104,0,104,0,228.651351,,,,,,,,,228.6261636,5,228.651351,228.651351,0.015086375,230.0486183,[0.11],[-0.17666666666666667],[1],[0],[0],[1.4079394170548767],['target'],,,,AR,1,2024-10-04_11h35.34.305,V3,2024.1.5,2024-10-04 11h35.49.420678 +0530
105,0,105,0,230.09581,,,,,,,,,230.0526249,10,230.09581,230.09581,0.028689792,231.4175846,[0.08666666666666667],[0.14777777777777779],[1],[0],[0],[1.3368383339839056],['target'],,,,AR,1,2024-10-04_11h35.34.305,V3,2024.1.5,2024-10-04 11h35.49.420678 +0530
106,0,106,0,231.4648745,,,,,,,,,231.4216376,10,231.4648745,231.4648745,0.028690083,232.5014761,[-0.01888888888888889],[0.2544444444444444],[1],[0],[0],[1.0517470000777394],['target'],,,,AR,1,2024-10-04_11h35.34.305,V3,2024.1.5,2024-10-04 11h35.49.420678 +0530
107,0,107,0,232.5312058,,,,,,,,,232.5055241,5,232.5312058,232.5312058,0.015515292,233.8315165,[0.11222222222222222],[-0.12333333333333334],[1],[0],[0],[1.3110451250104234],['target'],,,,AR,1,2024-10-04_11h35.34.305,V3,2024.1.5,2024-10-04 11h35.49.420678 +0530
108,0,108,0,233.8795025,,,,,,,,,233.8356744,10,233.8795025,233.8795025,0.029189959,236.6768304,[0.09888888888888889],[-0.4488888888888889],[1],[0],[0],[2.8125810000346974],['target'],,,,AR,1,2024-10-04_11h35.34.305,V3,2024.1.5,2024-10-04 11h35.49.420678 +0530
109,0,109,0,236.7242412,,,,,,,,,236.6809391,10,236.7242412,236.7242412,0.028771458,240.7848123,[0.4088888888888889],[0.056666666666666664],[1],[0],[0],[4.07567508390639],['target'],,,,AR,1,2024-10-04_11h35.34.305,V3,2024.1.5,2024-10-04 11h35.49.420678 +0530
110,0,110,0,240.814534,,,,,,,,,240.7888305,5,240.814534,240.814534,0.015195583,243.0479546,[0.18333333333333332],[-0.28888888888888886],[1],[0],[0],[2.244518000050448],['target'],,,,AR,1,2024-10-04_11h35.34.305,V3,2024.1.5,2024-10-04 11h35.49.420678 +0530
111,0,111,0,243.0952989,,,,,,,,,243.0519522,10,243.0952989,243.0952989,0.028681834,244.5915476,[-0.12111111111111111],[-0.14333333333333334],[1],[0],[0],[1.5114784160396084],['target'],,,,AR,1,2024-10-04_11h35.34.305,V3,2024.1.5,2024-10-04 11h35.49.420678 +0530
112,0,112,0,244.6211149,,,,,,,,,244.5955571,5,244.6211149,244.6211149,0.015217791,246.3578058,[0.37333333333333335],[-0.42],[1],[0],[0],[1.7476136250188574],['target'],,,,AR,1,2024-10-04_11h35.34.305,V3,2024.1.5,2024-10-04 11h35.49.420678 +0530
113,0,113,0,246.40497,,,,,,,,,246.3618185,10,246.40497,246.40497,0.028546542,249.2555601,[0.4922222222222222],[0.4777777777777778],[1],[0],[0],[2.8644622919382527],['target'],,,,AR,1,2024-10-04_11h35.34.305,V3,2024.1.5,2024-10-04 11h35.49.420678 +0530
114,0,114,0,249.3090695,,,,,,,,,249.2596737,10,249.3090695,249.3090695,0.032456417,250.9730658,[0.4177777777777778],[0.32222222222222224],[0],[0],[0],[1.6815344170900062],['target'],,,,AR,1,2024-10-04_11h35.34.305,V3,2024.1.5,2024-10-04 11h35.49.420678 +0530
115,0,115,0,251.0020116,,,,,,,,,250.977124,5,251.0020116,251.0020116,0.015208334,252.2817096,[0.15777777777777777],[-0.13111111111111112],[1],[0],[0],[1.2899826670764014],['target'],,,,AR,1,2024-10-04_11h35.34.305,V3,2024.1.5,2024-10-04 11h35.49.420678 +0530
116,0,116,0,252.330167,,,,,,,,,252.2857776,10,252.330167,252.330167,0.029217791,255.4776178,[0.2288888888888889],[-0.4888888888888889],[1],[0],[0],[3.1631842089118436],[],,,,AR,1,2024-10-04_11h35.34.305,V3,2024.1.5,2024-10-04 11h35.49.420678 +0530
117,0,117,0,255.5271297,,,,,,,,,255.4818435,10,255.5271297,255.5271297,0.029515917,257.6798593,[-0.3466666666666667],[0.28444444444444444],[1],[0],[0],[2.169042457942851],['target'],,,,AR,1,2024-10-04_11h35.34.305,V3,2024.1.5,2024-10-04 11h35.49.420678 +0530
118,0,118,0,257.7284774,,,,,,,,,257.6839108,10,257.7284774,257.7284774,0.029790334,259.5363485,[0.4411111111111111],[0.1988888888888889],[1],[0],[0],[1.8231501249829307],['target'],,,,AR,1,2024-10-04_11h35.34.305,V3,2024.1.5,2024-10-04 11h35.49.420678 +0530
119,0,119,0,259.5657745,,,,,,,,,259.5404113,5,259.5657745,259.5657745,0.015108834,262.9128986,[-0.20666666666666667],[0.17222222222222222],[1],[0],[0],[3.3577775000594556],['target'],,,,AR,1,2024-10-04_11h35.34.305,V3,2024.1.5,2024-10-04 11h35.49.420678 +0530
120,0,120,0,262.9637199,,,,,,,,,262.9171897,10,262.9637199,262.9637199,0.031353042,263.8159466,[-0.20333333333333334],[0.08666666666666667],[1],[0],[0],[0.8679549170192331],['target'],,,,AR,1,2024-10-04_11h35.34.305,V3,2024.1.5,2024-10-04 11h35.49.420678 +0530
121,0,121,0,263.8651767,,,,,,,,,263.819967,10,263.8651767,263.8651767,0.02945275,267.0327006,[0.22444444444444445],[-0.3433333333333333],[1],[0],[0],[3.183871916960925],['target'],,,,AR,1,2024-10-04_11h35.34.305,V3,2024.1.5,2024-10-04 11h35.49.420678 +0530
122,0,122,0,267.0802485,,,,,,,,,267.0367177,10,267.0802485,267.0802485,0.028675958,268.3461539,[0.013333333333333334],[-0.3111111111111111],[1],[0],[0],[1.281320207985118],['target'],,,,AR,1,2024-10-04_11h35.34.305,V3,2024.1.5,2024-10-04 11h35.49.420678 +0530
123,0,123,0,268.3755125,,,,,,,,,268.3501835,5,268.3755125,268.3755125,0.015065666,269.5653165,[0.12111111111111111],[-0.3422222222222222],[1],[0],[0],[1.2005681659793481],['target'],,,,AR,1,2024-10-04_11h35.34.305,V3,2024.1.5,2024-10-04 11h35.49.420678 +0530
124,0,124,0,269.5945745,,,,,,,,,269.5692865,5,269.5945745,269.5945745,0.014876375,271.0752954,[0.4033333333333333],[0.37222222222222223],[1],[0],[0],[1.4916984579758719],['target'],,,,AR,1,2024-10-04_11h35.34.305,V3,2024.1.5,2024-10-04 11h35.49.420678 +0530
125,0,125,0,271.1048544,,,,,,,,,271.0793625,5,271.1048544,271.1048544,0.014968208,272.5753361,[0.04555555555555556],[-0.38666666666666666],[1],[0],[0],[1.4816802080022171],['target'],,,,AR,1,2024-10-04_11h35.34.305,V3,2024.1.5,2024-10-04 11h35.49.420678 +0530
126,0,126,0,272.6222163,,,,,,,,,272.5793473,10,272.6222163,272.6222163,0.028457333,274.0282936,[0.23666666666666666],[0.08],[1],[0],[0],[1.421064083930105],['target'],,,,AR,1,2024-10-04_11h35.34.305,V3,2024.1.5,2024-10-04 11h35.49.420678 +0530
127,0,127,0,274.0581887,,,,,,,,,274.0324426,5,274.0581887,274.0581887,0.015457875,276.2586328,[0.2633333333333333],[0.16666666666666666],[1],[0],[0],[2.2113817079225555],['target'],,,,AR,1,2024-10-04_11h35.34.305,V3,2024.1.5,2024-10-04 11h35.49.420678 +0530
128,0,128,0,276.3057838,,,,,,,,,276.2626683,10,276.3057838,276.3057838,0.028605125,278.3736502,[-0.25555555555555554],[-0.2477777777777778],[1],[0],[0],[2.082962749991566],['target'],,,,AR,1,2024-10-04_11h35.34.305,V3,2024.1.5,2024-10-04 11h35.49.420678 +0530
129,0,129,0,278.4039238,,,,,,,,,278.377908,5,278.4039238,278.4039238,0.015805833,279.5491841,[-0.45222222222222225],[-0.19777777777777777],[1],[0],[0],[1.1560009170789272],['target'],,,,AR,1,2024-10-04_11h35.34.305,V3,2024.1.5,2024-10-04 11h35.49.420678 +0530
130,0,130,0,279.5785712,,,,,,,,,279.5531738,5,279.5785712,279.5785712,0.015088417,281.7491895,[0.44555555555555554],[0.13555555555555557],[1],[0],[0],[2.1814812500961125],['target'],,,,AR,1,2024-10-04_11h35.34.305,V3,2024.1.5,2024-10-04 11h35.49.420678 +0530
131,0,131,0,281.7787933,,,,,,,,,281.753189,5,281.7787933,281.7787933,0.015112042,283.915774,[0.06],[0.11666666666666667],[1],[0],[0],[2.14799220894929],['target'],,,,AR,1,2024-10-04_11h35.34.305,V3,2024.1.5,2024-10-04 11h35.49.420678 +0530
132,0,132,0,283.9451232,,,,,,,,,283.9197828,5,283.9451232,283.9451232,0.014971625,285.6659051,[-0.44666666666666666],[0.43222222222222223],[1],[0],[0],[1.7317377500003204],['target'],,,,AR,1,2024-10-04_11h35.34.305,V3,2024.1.5,2024-10-04 11h35.49.420678 +0530
133,0,133,0,285.6958851,,,,,,,,,285.6698891,5,285.6958851,285.6958851,0.015397416,287.9761598,[0.18333333333333332],[-0.41],[1],[0],[0],[2.2914339170092717],['target'],,,,AR,1,2024-10-04_11h35.34.305,V3,2024.1.5,2024-10-04 11h35.49.420678 +0530
134,0,134,0,288.0237792,,,,,,,,,287.9801523,10,288.0237792,288.0237792,0.02848075,289.2480483,[-0.27111111111111114],[-0.26555555555555554],[1],[0],[0],[1.2399422499584034],['target'],,,,AR,1,2024-10-04_11h35.34.305,V3,2024.1.5,2024-10-04 11h35.49.420678 +0530
135,0,135,0,289.2799735,,,,,,,,,289.2526492,5,289.2799735,289.2799735,0.017188125,291.4996256,[-0.45666666666666667],[0.3488888888888889],[1],[0],[0],[2.2304793749935925],['target'],,,,AR,1,2024-10-04_11h35.34.305,V3,2024.1.5,2024-10-04 11h35.49.420678 +0530
136,0,136,0,291.5290174,,,,,,,,,291.5036292,5,291.5290174,291.5290174,0.014974958,292.7097408,[-0.35],[0.08555555555555555],[1],[0],[0],[1.1917010000906885],['target'],,,,AR,1,2024-10-04_11h35.34.305,V3,2024.1.5,2024-10-04 11h35.49.420678 +0530
137,0,137,0,292.756636,,,,,,,,,292.713735,10,292.756636,292.756636,0.028518375,293.8701018,[-0.23444444444444446],[0.22],[1],[0],[0],[1.1283347079297528],['target'],,,,AR,1,2024-10-04_11h35.34.305,V3,2024.1.5,2024-10-04 11h35.49.420678 +0530
138,0,138,0,293.9171163,,,,,,,,,293.8741328,10,293.9171163,293.9171163,0.028647459,295.752837,[0.4711111111111111],[-0.41444444444444445],[1],[0],[0],[1.8506404589861631],['target'],,,,AR,1,2024-10-04_11h35.34.305,V3,2024.1.5,2024-10-04 11h35.49.420678 +0530
139,0,139,0,295.799945,,,,,,,,,295.7568229,10,295.799945,295.799945,0.02853725,298.7784255,[-0.22444444444444445],[-0.4255555555555556],[1],[0],[0],[2.9936432079412043],['target'],,,,AR,1,2024-10-04_11h35.34.305,V3,2024.1.5,2024-10-04 11h35.49.420678 +0530
140,0,140,0,298.8076425,,,,,,,,,298.7824345,5,298.8076425,298.8076425,0.015048041,300.126151,[0.10444444444444445],[-0.4011111111111111],[1],[0],[0],[1.329258874990046],['target'],,,,AR,1,2024-10-04_11h35.34.305,V3,2024.1.5,2024-10-04 11h35.49.420678 +0530
141,0,141,0,300.1553136,,,,,,,,,300.1301183,5,300.1553136,300.1553136,0.014801042,301.5662059,[0.4077777777777778],[0.43444444444444447],[1],[0],[0],[1.4218655419535935],['target'],,,,AR,1,2024-10-04_11h35.34.305,V3,2024.1.5,2024-10-04 11h35.49.420678 +0530
142,0,142,0,301.6134539,,,,,,,,,301.570163,10,301.6134539,301.6134539,0.028798209,303.2905697,[-0.4222222222222222],[-0.09888888888888889],[1],[0],[0],[1.6921757909003645],['target'],,,,AR,1,2024-10-04_11h35.34.305,V3,2024.1.5,2024-10-04 11h35.49.420678 +0530
143,0,143,0,303.3374235,,,,,,,,,303.2946434,10,303.3374235,303.3374235,0.028463667,305.445671,[0.19555555555555557],[-0.25222222222222224],[1],[0],[0],[2.1230434579774737],['target'],,,,AR,1,2024-10-04_11h35.34.305,V3,2024.1.5,2024-10-04 11h35.49.420678 +0530
144,0,144,0,305.492791,,,,,,,,,305.4496907,10,305.492791,305.492791,0.028472417,307.2495757,[0.30666666666666664],[0.42777777777777776],[1],[0],[0],[1.7718798749847338],['target'],,,,AR,1,2024-10-04_11h35.34.305,V3,2024.1.5,2024-10-04 11h35.49.420678 +0530
145,0,145,0,307.2967602,,,,,,,,,307.2536079,10,307.2967602,307.2967602,0.028680417,309.1444703,[-0.18222222222222223],[-0.3655555555555556],[1],[0],[0],[1.8626445840345696],['target'],,,,AR,1,2024-10-04_11h35.34.305,V3,2024.1.5,2024-10-04 11h35.49.420678 +0530
146,0,146,0,309.1742216,,,,,,,,,309.1486449,5,309.1742216,309.1742216,0.015204125,313.0387733,[0.13666666666666666],[0.4766666666666667],[1],[0],[0],[3.8754166250582784],['target'],,,,AR,1,2024-10-04_11h35.34.305,V3,2024.1.5,2024-10-04 11h35.49.420678 +0530
147,0,147,0,313.0901535,,,,,,,,,313.0433486,10,313.0901535,313.0901535,0.031518208,314.9116477,[-0.38555555555555554],[0.27666666666666667],[1],[0],[0],[1.8374630420003086],['target'],,,,AR,1,2024-10-04_11h35.34.305,V3,2024.1.5,2024-10-04 11h35.49.420678 +0530
148,0,148,0,314.9590949,,,,,,,,,314.9157153,10,314.9590949,314.9590949,0.028820833,316.7538683,[0.42777777777777776],[0.04777777777777778],[1],[0],[0],[1.809879916952923],['target'],,,,AR,1,2024-10-04_11h35.34.305,V3,2024.1.5,2024-10-04 11h35.49.420678 +0530
149,0,149,0,316.7831837,,,,,,,,,316.7578925,5,316.7831837,316.7831837,0.01502225,318.4506412,[0.5011111111111111],[-0.37],[1],[0],[0],[1.6781790829263628],['target'],,,,AR,1,2024-10-04_11h35.34.305,V3,2024.1.5,2024-10-04 11h35.49.420678 +0530
150,0,150,0,318.497793,,,,,,,,,318.4546487,10,318.497793,318.497793,0.028442667,319.9281335,[-0.17222222222222222],[0.05333333333333334],[1],[0],[0],[1.4456296660937369],['target'],,,,AR,1,2024-10-04_11h35.34.305,V3,2024.1.5,2024-10-04 11h35.49.420678 +0530
151,0,151,0,319.9750035,,,,,,,,,319.9321408,10,319.9750035,319.9750035,0.0285295,321.3300962,[-0.2922222222222222],[-0.37555555555555553],[1],[0],[0],[1.3699522919487208],['target'],,,,AR,1,2024-10-04_11h35.34.305,V3,2024.1.5,2024-10-04 11h35.49.420678 +0530
152,0,152,0,321.3780235,,,,,,,,,321.3341405,10,321.3780235,321.3780235,0.028447208,323.662011,[0.48777777777777775],[0.32222222222222224],[1],[0],[0],[2.3000155829358846],['target'],,,,AR,1,2024-10-04_11h35.34.305,V3,2024.1.5,2024-10-04 11h35.49.420678 +0530
153,0,153,0,323.7087096,,,,,,,,,323.666012,10,323.7087096,323.7087096,0.028390209,324.5461144,[0.44555555555555554],[0.3433333333333333],[1],[0],[0],[0.8522413750179112],['target'],,,,AR,1,2024-10-04_11h35.34.305,V3,2024.1.5,2024-10-04 11h35.49.420678 +0530
154,0,154,0,324.593648,,,,,,,,,324.550128,10,324.593648,324.593648,0.028978833,326.712209,[-0.4066666666666667],[-0.13111111111111112],[1],[0],[0],[2.1337170409969985],['target'],,,,AR,1,2024-10-04_11h35.34.305,V3,2024.1.5,2024-10-04 11h35.49.420678 +0530
155,0,155,0,326.7590238,,,,,,,,,326.7162103,10,326.7590238,326.7590238,0.028380792,328.2332916,[-0.4855555555555556],[-0.15333333333333332],[1],[0],[0],[1.4892705830279738],['target'],,,,AR,1,2024-10-04_11h35.34.305,V3,2024.1.5,2024-10-04 11h35.49.420678 +0530
156,0,156,0,328.2624534,,,,,,,,,328.2373182,5,328.2624534,328.2624534,0.015076667,329.8028053,[-0.2677777777777778],[0.2788888888888889],[1],[0],[0],[1.5508926670299843],['target'],,,,AR,1,2024-10-04_11h35.34.305,V3,2024.1.5,2024-10-04 11h35.49.420678 +0530
157,0,157,0,329.8328744,,,,,,,,,329.806866,5,329.8328744,329.8328744,0.015163791,331.3165056,[0.15777777777777777],[0.06333333333333334],[1],[0],[0],[1.4950884589925408],['target'],,,,AR,1,2024-10-04_11h35.34.305,V3,2024.1.5,2024-10-04 11h35.49.420678 +0530
158,0,158,0,331.3633802,,,,,,,,,331.3205043,10,331.3633802,331.3633802,0.028554208,332.5206192,[0.06222222222222222],[-0.10333333333333333],[1],[0],[0],[1.1721263750223443],['target'],,,,AR,1,2024-10-04_11h35.34.305,V3,2024.1.5,2024-10-04 11h35.49.420678 +0530
159,0,159,0,332.5675188,,,,,,,,,332.5246249,10,332.5675188,332.5675188,0.028400583,334.0463567,[-0.3055555555555556],[-0.035555555555555556],[1],[0],[0],[1.4938807080034167],['target'],,,,AR,1,2024-10-04_11h35.34.305,V3,2024.1.5,2024-10-04 11h35.49.420678 +0530
160,0,160,0,334.0937784,,,,,,,,,334.050522,10,334.0937784,334.0937784,0.028647125,335.6244485,[0.2811111111111111],[-0.1811111111111111],[1],[0],[0],[1.5458606670144945],['target'],,,,AR,1,2024-10-04_11h35.34.305,V3,2024.1.5,2024-10-04 11h35.49.420678 +0530
161,0,161,0,335.6536275,,,,,,,,,335.6285305,5,335.6536275,335.6536275,0.01511175,336.994169,[-0.49333333333333335],[-0.42444444444444446],[1],[0],[0],[1.3511743328999728],['target'],,,,AR,1,2024-10-04_11h35.34.305,V3,2024.1.5,2024-10-04 11h35.49.420678 +0530
162,0,162,0,337.0416809,,,,,,,,,336.9981807,10,337.0416809,337.0416809,0.029004125,339.7878718,[-0.03111111111111111],[-0.3877777777777778],[1],[0],[0],[2.761237833998166],['target'],,,,AR,1,2024-10-04_11h35.34.305,V3,2024.1.5,2024-10-04 11h35.49.420678 +0530
163,0,163,0,339.8172674,,,,,,,,,339.7918961,5,339.8172674,339.8172674,0.015142333,342.1437162,[0.15222222222222223],[0.26555555555555554],[1],[0],[0],[2.3372537919785827],['target'],,,,AR,1,2024-10-04_11h35.34.305,V3,2024.1.5,2024-10-04 11h35.49.420678 +0530
164,0,164,0,342.190508,,,,,,,,,342.1477024,10,342.190508,342.190508,0.0282585,344.0123585,[0.36],[0.043333333333333335],[1],[0],[0],[1.8369904170976952],['target'],,,,AR,1,2024-10-04_11h35.34.305,V3,2024.1.5,2024-10-04 11h35.49.420678 +0530
165,0,165,0,344.0591428,,,,,,,,,344.0163795,10,344.0591428,344.0591428,0.028313209,345.2126705,[0.47444444444444445],[0.06111111111111111],[1],[0],[0],[1.1685687080025673],['target'],,,,AR,1,2024-10-04_11h35.34.305,V3,2024.1.5,2024-10-04 11h35.49.420678 +0530
166,0,166,0,345.242197,,,,,,,,,345.2166889,5,345.242197,345.242197,0.015116625,346.4111253,[0.2911111111111111],[0.09777777777777778],[1],[0],[0],[1.1799154579639435],['target'],,,,AR,1,2024-10-04_11h35.34.305,V3,2024.1.5,2024-10-04 11h35.49.420678 +0530
167,0,167,0,346.4403504,,,,,,,,,346.4151357,5,346.4403504,346.4403504,0.014825958,348.3174298,[-0.14333333333333334],[-0.13777777777777778],[1],[0],[0],[1.8880954580381513],['target'],,,,AR,1,2024-10-04_11h35.34.305,V3,2024.1.5,2024-10-04 11h35.49.420678 +0530
168,0,168,0,348.3642369,,,,,,,,,348.3214229,10,348.3642369,348.3642369,0.0285005,350.2338303,[0.3488888888888889],[-0.45],[1],[0],[0],[1.8843605410074815],['target'],,,,AR,1,2024-10-04_11h35.34.305,V3,2024.1.5,2024-10-04 11h35.49.420678 +0530
169,0,169,0,350.2816986,,,,,,,,,350.237828,10,350.2816986,350.2816986,0.028965625,351.642385,[-0.22666666666666666],[0.006666666666666667],[0],[0],[0],[1.3761821669759229],['target'],,,,AR,1,2024-10-04_11h35.34.305,V3,2024.1.5,2024-10-04 11h35.49.420678 +0530
170,0,170,0,351.671062,,,,,,,,,351.6464282,5,351.671062,351.671062,0.015120084,353.141055,[0.39555555555555555],[0.2966666666666667],[1],[0],[0],[1.4801068329252303],['target'],,,,AR,1,2024-10-04_11h35.34.305,V3,2024.1.5,2024-10-04 11h35.49.420678 +0530
171,0,171,0,353.1878732,,,,,,,,,353.1450588,10,353.1878732,353.1878732,0.028415625,355.1214576,[-0.06888888888888889],[0.34555555555555556],[1],[0],[0],[1.948535457951948],['target'],,,,AR,1,2024-10-04_11h35.34.305,V3,2024.1.5,2024-10-04 11h35.49.420678 +0530
172,0,172,0,355.1505729,,,,,,,,,355.1254687,5,355.1505729,355.1505729,0.01500875,356.5276068,[0.23],[-0.26555555555555554],[1],[0],[0],[1.3876718329265714],['target'],,,,AR,1,2024-10-04_11h35.34.305,V3,2024.1.5,2024-10-04 11h35.49.420678 +0530
173,0,173,0,356.5743409,,,,,,,,,356.5316148,10,356.5743409,356.5743409,0.028285167,357.9873778,[-0.3611111111111111],[-0.06444444444444444],[1],[0],[0],[1.4280312079936266],['target'],,,,AR,1,2024-10-04_11h35.34.305,V3,2024.1.5,2024-10-04 11h35.49.420678 +0530
174,0,174,0,358.0342893,,,,,,,,,357.9913676,10,358.0342893,358.0342893,0.028490292,362.396485,[0.028888888888888888],[-0.25222222222222224],[1],[0],[0],[4.377186916070059],['target'],,,,AR,1,2024-10-04_11h35.34.305,V3,2024.1.5,2024-10-04 11h35.49.420678 +0530
175,0,175,0,362.4255226,,,,,,,,,362.40052,5,362.4255226,362.4255226,0.014945667,364.1246783,[-0.31222222222222223],[0.4477777777777778],[1],[0],[0],[1.7098142919130623],['target'],,,,AR,1,2024-10-04_11h35.34.305,V3,2024.1.5,2024-10-04 11h35.49.420678 +0530
176,0,176,0,364.1561852,,,,,,,,,364.1287016,5,364.1561852,364.1561852,0.016568959,365.9346422,[-0.2088888888888889],[0.2088888888888889],[1],[0],[0],[1.7899723750306293],['target'],,,,AR,1,2024-10-04_11h35.34.305,V3,2024.1.5,2024-10-04 11h35.49.420678 +0530
177,0,177,0,365.9816526,,,,,,,,,365.9386219,10,365.9816526,365.9816526,0.02859775,368.2879215,[0.49666666666666665],[0.011111111111111112],[1],[0],[0],[2.3212562080007046],['target'],,,,AR,1,2024-10-04_11h35.34.305,V3,2024.1.5,2024-10-04 11h35.49.420678 +0530
178,0,178,0,368.3352038,,,,,,,,,368.2919326,10,368.3352038,368.3352038,0.028816958,371.7343316,[0.2588888888888889],[0.11666666666666667],[1],[0],[0],[3.4140874160220847],['target'],,,,AR,1,2024-10-04_11h35.34.305,V3,2024.1.5,2024-10-04 11h35.49.420678 +0530
179,0,179,0,371.7812066,,,,,,,,,371.7383525,10,371.7812066,371.7812066,0.028493334,374.4515492,[0.3811111111111111],[-0.09777777777777778],[1],[0],[0],[2.68525950005278],['target'],,,,AR,1,2024-10-04_11h35.34.305,V3,2024.1.5,2024-10-04 11h35.49.420678 +0530
180,0,180,0,374.499203,,,,,,,,,374.4557085,10,374.499203,374.499203,0.029069042,375.9176861,[-0.30444444444444446],[-0.23666666666666666],[1],[0],[0],[1.4334984169108793],['target'],,,,AR,1,2024-10-04_11h35.34.305,V3,2024.1.5,2024-10-04 11h35.49.420678 +0530
181,0,181,0,375.9468171,,,,,,,,,375.9216987,5,375.9468171,375.9468171,0.015008916,376.8786495,[-0.12555555555555556],[-0.29],[1],[0],[0],[0.9425232500070706],['target'],,,,AR,1,2024-10-04_11h35.34.305,V3,2024.1.5,2024-10-04 11h35.49.420678 +0530
182,0,182,0,376.9078213,,,,,,,,,376.882645,5,376.9078213,376.9078213,0.014788291,378.7849261,[-0.49777777777777776],[0.2311111111111111],[1],[0],[0],[1.8880946660647169],['target'],,,,AR,1,2024-10-04_11h35.34.305,V3,2024.1.5,2024-10-04 11h35.49.420678 +0530
183,0,183,0,378.8146022,,,,,,,,,378.788906,5,378.8146022,378.8146022,0.015521167,380.8020625,[-0.2111111111111111],[-0.35888888888888887],[1],[0],[0],[1.9982202079845592],['target'],,,,AR,1,2024-10-04_11h35.34.305,V3,2024.1.5,2024-10-04 11h35.49.420678 +0530
184,0,184,0,380.849228,,,,,,,,,380.8060263,10,380.849228,380.849228,0.02875475,382.1982843,[0.29777777777777775],[-0.43],[1],[0],[0],[1.3640771249774843],['target'],,,,AR,1,2024-10-04_11h35.34.305,V3,2024.1.5,2024-10-04 11h35.49.420678 +0530
185,0,185,0,382.245221,,,,,,,,,382.2023074,10,382.245221,382.245221,0.028510791,383.9520673,[0.08333333333333333],[-0.21555555555555556],[1],[0],[0],[1.7053942499915138],['target'],,,,AR,1,2024-10-04_11h35.34.305,V3,2024.1.5,2024-10-04 11h35.49.420678 +0530
186,0,186,0,384.0052048,,,,,,,,,383.9597466,5,384.0052048,384.0052048,0.029384666,385.1119585,[0.1622222222222222],[0.1322222222222222],[1],[0],[0],[1.1241300420369953],['target'],,,,AR,1,2024-10-04_11h35.34.305,V3,2024.1.5,2024-10-04 11h35.49.420678 +0530
187,0,187,0,385.1413418,,,,,,,,,385.1160025,5,385.1413418,385.1413418,0.014901708,386.6685128,[0.2477777777777778],[0.022222222222222223],[1],[0],[0],[1.5382016659714282],['target'],,,,AR,1,2024-10-04_11h35.34.305,V3,2024.1.5,2024-10-04 11h35.49.420678 +0530
188,0,188,0,386.7167156,,,,,,,,,386.6726801,10,386.7167156,386.7167156,0.02927,388.0977031,[0.4588888888888889],[0.38333333333333336],[1],[0],[0],[1.3963566669262946],['target'],,,,AR,1,2024-10-04_11h35.34.305,V3,2024.1.5,2024-10-04 11h35.49.420678 +0530
189,0,189,0,388.1448945,,,,,,,,,388.1017858,10,388.1448945,388.1448945,0.02843075,391.04387,[-0.26],[0.3888888888888889],[1],[0],[0],[2.914062875090167],['target'],,,,AR,1,2024-10-04_11h35.34.305,V3,2024.1.5,2024-10-04 11h35.49.420678 +0530
190,0,190,0,391.0736603,,,,,,,,,391.0479477,5,391.0736603,391.0736603,0.015543541,392.3359741,[0.11],[0.14555555555555555],[1],[0],[0],[1.2729510420467705],['target'],,,,AR,1,2024-10-04_11h35.34.305,V3,2024.1.5,2024-10-04 11h35.49.420678 +0530
191,0,191,0,392.3828508,,,,,,,,,392.3399911,10,392.3828508,392.3828508,0.028387375,395.0517535,[-0.39444444444444443],[-0.45222222222222225],[1],[0],[0],[2.6838349589379504],['target'],,,,AR,1,2024-10-04_11h35.34.305,V3,2024.1.5,2024-10-04 11h35.49.420678 +0530
192,0,192,0,395.0812825,,,,,,,,,395.0557435,5,395.0812825,395.0812825,0.015114875,396.5123726,[0.22555555555555556],[-0.02666666666666667],[1],[0],[0],[1.4421034160768613],['target'],,,,AR,1,2024-10-04_11h35.34.305,V3,2024.1.5,2024-10-04 11h35.49.420678 +0530
193,0,193,0,396.559329,,,,,,,,,396.5164102,10,396.559329,396.559329,0.02832125,398.4390295,[0.42777777777777776],[0.46555555555555556],[1],[0],[0],[1.8948973750229925],['target'],,,,AR,1,2024-10-04_11h35.34.305,V3,2024.1.5,2024-10-04 11h35.49.420678 +0530
194,0,194,0,398.4686827,,,,,,,,,398.4430655,5,398.4686827,398.4686827,0.015240958,399.9791011,[-0.40444444444444444],[0.21],[1],[0],[0],[1.5213572080247104],['target'],,,,AR,1,2024-10-04_11h35.34.305,V3,2024.1.5,2024-10-04 11h35.49.420678 +0530
195,0,195,0,400.0260358,,,,,,,,,399.9831258,10,400.0260358,400.0260358,0.028529375,402.3976797,[-0.39666666666666667],[-0.024444444444444446],[1],[0],[0],[2.386615208000876],['target'],,,,AR,1,2024-10-04_11h35.34.305,V3,2024.1.5,2024-10-04 11h35.49.420678 +0530
196,0,196,0,402.4270317,,,,,,,,,402.4017518,5,402.4270317,402.4270317,0.015074667,403.9363963,[0.5122222222222222],[0.39666666666666667],[1],[0],[0],[1.5201408750144765],['target'],,,,AR,1,2024-10-04_11h35.34.305,V3,2024.1.5,2024-10-04 11h35.49.420678 +0530
197,0,197,0,403.9833328,,,,,,,,,403.9404236,10,403.9833328,403.9833328,0.028530208,405.8105184,[0.47444444444444445],[-0.23555555555555555],[0],[0],[0],[1.8421569999773055],['target'],,,,AR,1,2024-10-04_11h35.34.305,V3,2024.1.5,2024-10-04 11h35.49.420678 +0530
198,0,198,0,405.8394788,,,,,,,,,405.8145131,5,405.8394788,405.8394788,0.015468708,407.1863001,[-0.10777777777777778],[-0.2722222222222222],[1],[0],[0],[1.3568135419627652],['target'],,,,AR,1,2024-10-04_11h35.34.305,V3,2024.1.5,2024-10-04 11h35.49.420678 +0530
199,0,199,0,407.2157183,,,,,,,,,407.1903118,5,407.2157183,407.2157183,0.014975,408.7859053,[0.3288888888888889],[-0.3511111111111111],[1],[0],[0],[1.5811932920478284],['target'],,,,AR,1,2024-10-04_11h35.34.305,V3,2024.1.5,2024-10-04 11h35.49.420678 +0530
,,,,,,,,,,,,,,,,,,,,,,,,,,408.7890701,408.8062395,411.7919442,AR,1,2024-10-04_11h35.34.305,V3,2024.1.5,2024-10-04 11h35.49.420678 +0530