trials.thisRepN,trials.thisTrialN,trials.thisN,trials.thisIndex,thisRow.t,notes,ins.started,text.started,key_resp.started,ins.stopped,key_resp.keys,key_resp.rt,key_resp.duration,trial.started,num_distr,Fixation.started,target.started,mouse.started,trial.stopped,mouse.x,mouse.y,mouse.leftButton,mouse.midButton,mouse.rightButton,mouse.time,mouse.clicked_name,thanks.started,text_2.started,text_2.stopped,thanks.stopped,participant,session,date,expName,psychopyVersion,expStart
,,,,,,0.068187792,0.106185625,0.106185625,3.603618958,space,3.495294,None,,,,,,,,,,,,,,,,,,NK,1,2024-10-04_11h28.09.880,V3,2024.1.5,2024-10-04 11h28.32.152801 +0530
0,0,0,0,3.660367792,,,,,,,,,3.612817042,5,3.660367792,3.660367792,0.038236042,4.609748833,[0.13333333333333333],[-0.08222222222222222],[1],[0],[0],[0.9675429590279236],['target'],,,,,NK,1,2024-10-04_11h28.09.880,V3,2024.1.5,2024-10-04 11h28.32.152801 +0530
1,0,1,0,4.640862208,,,,,,,,,4.615053,5,4.640862208,4.640862208,0.015432166,5.697344583,[0.17222222222222222],[-0.4222222222222222],[1],[0],[0],[1.0674467080971226],[],,,,,NK,1,2024-10-04_11h28.09.880,V3,2024.1.5,2024-10-04 11h28.32.152801 +0530
2,0,2,0,5.745033458,,,,,,,,,5.701429833,10,5.745033458,5.745033458,0.029017166,7.009879542,[0.13333333333333333],[0.14333333333333334],[1],[0],[0],[1.2800275420304388],['target'],,,,,NK,1,2024-10-04_11h28.09.880,V3,2024.1.5,2024-10-04 11h28.32.152801 +0530
3,0,3,0,7.058394167,,,,,,,,,7.013939083,10,7.058394167,7.058394167,0.029742791,8.602245333,[-0.013333333333333334],[0.23222222222222222],[1],[0],[0],[1.5590454579796642],['target'],,,,,NK,1,2024-10-04_11h28.09.880,V3,2024.1.5,2024-10-04 11h28.32.152801 +0530
4,0,4,0,8.649845292,,,,,,,,,8.606359,10,8.649845292,8.649845292,0.029013375,9.462605333,[-0.09222222222222222],[0.22555555555555556],[1],[0],[0],[0.8277391670271754],['target'],,,,,NK,1,2024-10-04_11h28.09.880,V3,2024.1.5,2024-10-04 11h28.32.152801 +0530
5,0,5,0,9.492148833,,,,,,,,,9.466688625,5,9.492148833,9.492148833,0.015201833,10.50013063,[0.056666666666666664],[0.46111111111111114],[1],[0],[0],[1.0187912080436945],['target'],,,,,NK,1,2024-10-04_11h28.09.880,V3,2024.1.5,2024-10-04 11h28.32.152801 +0530
6,0,6,0,10.54796567,,,,,,,,,10.50426429,10,10.54796567,10.54796567,0.029338458,11.69348108,[-0.3188888888888889],[0.024444444444444446],[1],[0],[0],[1.1604799170745537],['target'],,,,,NK,1,2024-10-04_11h28.09.880,V3,2024.1.5,2024-10-04 11h28.32.152801 +0530
7,0,7,0,11.72305096,,,,,,,,,11.69755313,5,11.72305096,11.72305096,0.015240041,15.35736675,[-0.31555555555555553],[0.034444444444444444],[1],[0],[0],[3.6451487080194056],['target'],,,,,NK,1,2024-10-04_11h28.09.880,V3,2024.1.5,2024-10-04 11h28.32.152801 +0530
8,0,8,0,15.38794842,,,,,,,,,15.36153658,5,15.38794842,15.38794842,0.015716417,16.45653758,[0.1288888888888889],[-0.2611111111111111],[1],[0],[0],[1.0799372090259567],['target'],,,,,NK,1,2024-10-04_11h28.09.880,V3,2024.1.5,2024-10-04 11h28.32.152801 +0530
9,0,9,0,16.50453417,,,,,,,,,16.46061413,10,16.50453417,16.50453417,0.029086375,18.03337283,[0.16],[0.41888888888888887],[1],[0],[0],[1.544256207998842],['target'],,,,,NK,1,2024-10-04_11h28.09.880,V3,2024.1.5,2024-10-04 11h28.32.152801 +0530
10,0,10,0,18.08140442,,,,,,,,,18.03757058,10,18.08140442,18.08140442,0.029247834,19.30638967,[0.0811111111111111],[0.41555555555555557],[1],[0],[0],[1.2402185830287635],['target'],,,,,NK,1,2024-10-04_11h28.09.880,V3,2024.1.5,2024-10-04 11h28.32.152801 +0530
11,0,11,0,19.33610596,,,,,,,,,19.31045875,5,19.33610596,19.33610596,0.015309625,21.48005896,[-0.22666666666666666],[-0.3611111111111111],[1],[0],[0],[2.1548966659465805],[],,,,,NK,1,2024-10-04_11h28.09.880,V3,2024.1.5,2024-10-04 11h28.32.152801 +0530
12,0,12,0,21.52761725,,,,,,,,,21.48412771,10,21.52761725,21.52761725,0.029011167,22.63607196,[-0.28444444444444444],[-0.36],[1],[0],[0],[1.1235252089099959],['target'],,,,,NK,1,2024-10-04_11h28.09.880,V3,2024.1.5,2024-10-04 11h28.32.152801 +0530
13,0,13,0,22.68353017,,,,,,,,,22.64021483,10,22.68353017,22.68353017,0.029031125,25.32369858,[-0.35777777777777775],[0.4311111111111111],[1],[0],[0],[2.6550554169807583],['target'],,,,,NK,1,2024-10-04_11h28.09.880,V3,2024.1.5,2024-10-04 11h28.32.152801 +0530
14,0,14,0,25.35333379,,,,,,,,,25.32778479,5,25.35333379,25.35333379,0.015324541,27.02339608,[-0.15666666666666668],[0.3844444444444444],[1],[0],[0],[1.6808722499990836],['target'],,,,,NK,1,2024-10-04_11h28.09.880,V3,2024.1.5,2024-10-04 11h28.32.152801 +0530
15,0,15,0,27.07109175,,,,,,,,,27.02751196,10,27.07109175,27.07109175,0.028946833,29.01469633,[0.3622222222222222],[-0.14888888888888888],[1],[0],[0],[1.9586743330582976],['target'],,,,,NK,1,2024-10-04_11h28.09.880,V3,2024.1.5,2024-10-04 11h28.32.152801 +0530
16,0,16,0,29.06215883,,,,,,,,,29.018873,10,29.06215883,29.06215883,0.0287655,30.84482821,[-0.20666666666666667],[0.39555555555555555],[1],[0],[0],[1.7977792919846252],['target'],,,,,NK,1,2024-10-04_11h28.09.880,V3,2024.1.5,2024-10-04 11h28.32.152801 +0530
17,0,17,0,30.87514929,,,,,,,,,30.84894192,5,30.87514929,30.87514929,0.015774417,31.95064525,[0.06666666666666667],[0.27111111111111114],[1],[0],[0],[1.0865413340507075],['target'],,,,,NK,1,2024-10-04_11h28.09.880,V3,2024.1.5,2024-10-04 11h28.32.152801 +0530
18,0,18,0,31.98012617,,,,,,,,,31.95472571,5,31.98012617,31.98012617,0.015036083,33.69698471,[0.23],[-0.2544444444444444],[1],[0],[0],[1.7278222079621628],['target'],,,,,NK,1,2024-10-04_11h28.09.880,V3,2024.1.5,2024-10-04 11h28.32.152801 +0530
19,0,19,0,33.72657658,,,,,,,,,33.701066,5,33.72657658,33.72657658,0.015349875,35.42409288,[-0.24888888888888888],[0.35],[1],[0],[0],[1.7082772080320865],['target'],,,,,NK,1,2024-10-04_11h28.09.880,V3,2024.1.5,2024-10-04 11h28.32.152801 +0530
20,0,20,0,35.471904,,,,,,,,,35.42814079,10,35.471904,35.471904,0.029249542,36.8895925,[0.27444444444444444],[-0.41555555555555557],[1],[0],[0],[1.432792624924332],['target'],,,,,NK,1,2024-10-04_11h28.09.880,V3,2024.1.5,2024-10-04 11h28.32.152801 +0530
21,0,21,0,36.91928554,,,,,,,,,36.893666,5,36.91928554,36.91928554,0.015350625,39.27447179,[0.2922222222222222],[0.44333333333333336],[1],[0],[0],[2.3659797500586137],['target'],,,,,NK,1,2024-10-04_11h28.09.880,V3,2024.1.5,2024-10-04 11h28.32.152801 +0530
22,0,22,0,39.3231185,,,,,,,,,39.27858458,10,39.3231185,39.3231185,0.029785333,40.81857613,[-0.06222222222222222],[0.13333333333333333],[1],[0],[0],[1.51084224996157],['target'],,,,,NK,1,2024-10-04_11h28.09.880,V3,2024.1.5,2024-10-04 11h28.32.152801 +0530
23,0,23,0,40.84808446,,,,,,,,,40.82263458,5,40.84808446,40.84808446,0.015145167,41.79725125,[-0.14333333333333334],[0.26222222222222225],[1],[0],[0],[0.960077999974601],['target'],,,,,NK,1,2024-10-04_11h28.09.880,V3,2024.1.5,2024-10-04 11h28.32.152801 +0530
24,0,24,0,41.84443729,,,,,,,,,41.80130054,10,41.84443729,41.84443729,0.028820542,43.19422383,[-0.03888888888888889],[-0.06222222222222222],[1],[0],[0],[1.3646806250326335],['target'],,,,,NK,1,2024-10-04_11h28.09.880,V3,2024.1.5,2024-10-04 11h28.32.152801 +0530
25,0,25,0,43.24190192,,,,,,,,,43.19831792,10,43.24190192,43.24190192,0.02919025,45.72768779,[0.33111111111111113],[-0.29555555555555557],[1],[0],[0],[2.500752415973693],['target'],,,,,NK,1,2024-10-04_11h28.09.880,V3,2024.1.5,2024-10-04 11h28.32.152801 +0530
26,0,26,0,45.75713838,,,,,,,,,45.73175338,5,45.75713838,45.75713838,0.015223916,47.41417938,[0.3466666666666667],[0.2788888888888889],[1],[0],[0],[1.6678252080455422],['target'],,,,,NK,1,2024-10-04_11h28.09.880,V3,2024.1.5,2024-10-04 11h28.32.152801 +0530
27,0,27,0,47.44365288,,,,,,,,,47.41823133,5,47.44365288,47.44365288,0.014964167,49.25095104,[-0.31555555555555553],[0.4288888888888889],[1],[0],[0],[1.8182787499390543],['target'],,,,,NK,1,2024-10-04_11h28.09.880,V3,2024.1.5,2024-10-04 11h28.32.152801 +0530
28,0,28,0,49.29824354,,,,,,,,,49.255028,10,49.29824354,49.29824354,0.02891625,50.64438717,[0.3611111111111111],[0.37],[1],[0],[0],[1.3610234999796376],['target'],,,,,NK,1,2024-10-04_11h28.09.880,V3,2024.1.5,2024-10-04 11h28.32.152801 +0530
29,0,29,0,50.67384575,,,,,,,,,50.64843088,5,50.67384575,50.67384575,0.015247917,53.63104613,[0.3388888888888889],[-0.19777777777777777],[1],[0],[0],[2.967981082969345],['target'],,,,,NK,1,2024-10-04_11h28.09.880,V3,2024.1.5,2024-10-04 11h28.32.152801 +0530
30,0,30,0,53.67803633,,,,,,,,,53.63508225,10,53.67803633,53.67803633,0.028656584,55.51579079,[-0.14666666666666667],[0.36],[0],[0],[0],[1.8526573750423267],['target'],,,,,NK,1,2024-10-04_11h28.09.880,V3,2024.1.5,2024-10-04 11h28.32.152801 +0530
31,0,31,0,55.54485954,,,,,,,,,55.51993808,5,55.54485954,55.54485954,0.015361583,57.05788642,[-0.42777777777777776],[-0.18555555555555556],[1],[0],[0],[1.5230986670358106],['target'],,,,,NK,1,2024-10-04_11h28.09.880,V3,2024.1.5,2024-10-04 11h28.32.152801 +0530
32,0,32,0,57.08737967,,,,,,,,,57.06192083,5,57.08737967,57.08737967,0.015059541,58.41797713,[0.39222222222222225],[0.09888888888888889],[1],[0],[0],[1.3416207920527086],['target'],,,,,NK,1,2024-10-04_11h28.09.880,V3,2024.1.5,2024-10-04 11h28.32.152801 +0530
33,0,33,0,58.46552654,,,,,,,,,58.42204604,10,58.46552654,58.46552654,0.029148417,60.14486254,[-0.2722222222222222],[0.12777777777777777],[1],[0],[0],[1.694256915943697],['target'],,,,,NK,1,2024-10-04_11h28.09.880,V3,2024.1.5,2024-10-04 11h28.32.152801 +0530
34,0,34,0,60.19196683,,,,,,,,,60.14893025,10,60.19196683,60.19196683,0.028640583,63.04086254,[-0.25222222222222224],[-0.24888888888888888],[1],[0],[0],[2.86389387503732],['target'],,,,,NK,1,2024-10-04_11h28.09.880,V3,2024.1.5,2024-10-04 11h28.32.152801 +0530
35,0,35,0,63.08811133,,,,,,,,,63.04493846,10,63.08811133,63.08811133,0.028812375,66.21593858,[0.1111111111111111],[0.20444444444444446],[1],[0],[0],[3.142674707924016],['target'],,,,,NK,1,2024-10-04_11h28.09.880,V3,2024.1.5,2024-10-04 11h28.32.152801 +0530
36,0,36,0,66.24529396,,,,,,,,,66.22000275,5,66.24529396,66.24529396,0.015272166,67.94142913,[-0.2288888888888889],[0.11666666666666667],[1],[0],[0],[1.706746083102189],['target'],,,,,NK,1,2024-10-04_11h28.09.880,V3,2024.1.5,2024-10-04 11h28.32.152801 +0530
37,0,37,0,67.988726,,,,,,,,,67.94546788,10,67.988726,67.988726,0.0287995,69.56576458,[-0.21222222222222223],[-0.2833333333333333],[1],[0],[0],[1.5921171250520274],['target'],,,,,NK,1,2024-10-04_11h28.09.880,V3,2024.1.5,2024-10-04 11h28.32.152801 +0530
38,0,38,0,69.61291738,,,,,,,,,69.56983883,10,69.61291738,69.61291738,0.028835083,72.69972612,[0.4088888888888889],[0.29333333333333333],[0],[0],[0],[3.1016278750030324],['target'],,,,,NK,1,2024-10-04_11h28.09.880,V3,2024.1.5,2024-10-04 11h28.32.152801 +0530
39,0,39,0,72.74646229,,,,,,,,,72.70384304,10,72.74646229,72.74646229,0.028922834,73.84120308,[-0.1988888888888889],[0.3288888888888889],[1],[0],[0],[1.1090704159578308],[],,,,,NK,1,2024-10-04_11h28.09.880,V3,2024.1.5,2024-10-04 11h28.32.152801 +0530
40,0,40,0,73.88835133,,,,,,,,,73.84524658,10,73.88835133,73.88835133,0.028914542,75.35401183,[0.5144444444444445],[-0.0811111111111111],[1],[0],[0],[1.4804570419946685],['target'],,,,,NK,1,2024-10-04_11h28.09.880,V3,2024.1.5,2024-10-04 11h28.32.152801 +0530
41,0,41,0,75.38327025,,,,,,,,,75.35810592,5,75.38327025,75.38327025,0.01516625,76.44132908,[0.37444444444444447],[0.09888888888888889],[1],[0],[0],[1.068606499931775],['target'],,,,,NK,1,2024-10-04_11h28.09.880,V3,2024.1.5,2024-10-04 11h28.32.152801 +0530
42,0,42,0,76.47061713,,,,,,,,,76.44538275,5,76.47061713,76.47061713,0.014992875,77.45829663,[-0.0022222222222222222],[0.18666666666666668],[1],[0],[0],[0.9985338329570368],['target'],,,,,NK,1,2024-10-04_11h28.09.880,V3,2024.1.5,2024-10-04 11h28.32.152801 +0530
43,0,43,0,77.48766779,,,,,,,,,77.46231992,5,77.48766779,77.48766779,0.015057458,78.25897067,[-0.22111111111111112],[0.19666666666666666],[1],[0],[0],[0.7821846250444651],['target'],,,,,NK,1,2024-10-04_11h28.09.880,V3,2024.1.5,2024-10-04 11h28.32.152801 +0530
44,0,44,0,78.28934304,,,,,,,,,78.26303733,5,78.28934304,78.28934304,0.015603625,80.00159904,[-0.2811111111111111],[0.37333333333333335],[1],[0],[0],[1.7235817910404876],['target'],,,,,NK,1,2024-10-04_11h28.09.880,V3,2024.1.5,2024-10-04 11h28.32.152801 +0530
45,0,45,0,80.03115896,,,,,,,,,80.00566604,5,80.03115896,80.03115896,0.015203667,81.75139904,[0.27111111111111114],[-0.12222222222222222],[1],[0],[0],[1.7311447920510545],['target'],,,,,NK,1,2024-10-04_11h28.09.880,V3,2024.1.5,2024-10-04 11h28.32.152801 +0530
46,0,46,0,81.79872888,,,,,,,,,81.75548204,10,81.79872888,81.79872888,0.0288555,82.89543129,[-0.3288888888888889],[0.18888888888888888],[1],[0],[0],[1.1116773330140859],['target'],,,,,NK,1,2024-10-04_11h28.09.880,V3,2024.1.5,2024-10-04 11h28.32.152801 +0530
47,0,47,0,82.9423035,,,,,,,,,82.89952275,10,82.9423035,82.9423035,0.028565709,84.87929817,[0.06222222222222222],[0.17444444444444446],[1],[0],[0],[1.951803584001027],['target'],,,,,NK,1,2024-10-04_11h28.09.880,V3,2024.1.5,2024-10-04 11h28.32.152801 +0530
48,0,48,0,84.90898821,,,,,,,,,84.8833795,5,84.90898821,84.90898821,0.015487833,86.218739,[0.24666666666666667],[-0.02666666666666667],[1],[0],[0],[1.3204521659063175],[],,,,,NK,1,2024-10-04_11h28.09.880,V3,2024.1.5,2024-10-04 11h28.32.152801 +0530
49,0,49,0,86.26602558,,,,,,,,,86.22283688,10,86.26602558,86.26602558,0.028808916,88.14533233,[0.04777777777777778],[-0.011111111111111112],[1],[0],[0],[1.8942725829547271],['target'],,,,,NK,1,2024-10-04_11h28.09.880,V3,2024.1.5,2024-10-04 11h28.32.152801 +0530
50,0,50,0,88.17500354,,,,,,,,,88.14946192,5,88.17500354,88.17500354,0.015374125,90.24635025,[-0.49666666666666665],[-0.3188888888888889],[1],[0],[0],[2.0819597089430317],['target'],,,,,NK,1,2024-10-04_11h28.09.880,V3,2024.1.5,2024-10-04 11h28.32.152801 +0530
51,0,51,0,90.30074775,,,,,,,,,90.25118871,10,90.30074775,90.30074775,0.033160916,91.85415854,[-0.4811111111111111],[-0.36666666666666664],[1],[0],[0],[1.5705405829939991],['target'],,,,,NK,1,2024-10-04_11h28.09.880,V3,2024.1.5,2024-10-04 11h28.32.152801 +0530
52,0,52,0,91.90131796,,,,,,,,,91.8582555,10,91.90131796,91.90131796,0.028493084,93.64595146,[-0.051111111111111114],[-0.2611111111111111],[1],[0],[0],[1.759792249999009],['target'],,,,,NK,1,2024-10-04_11h28.09.880,V3,2024.1.5,2024-10-04 11h28.32.152801 +0530
53,0,53,0,93.67530021,,,,,,,,,93.65002871,5,93.67530021,93.67530021,0.015183916,95.40900063,[0.33],[0.19444444444444445],[1],[0],[0],[1.7443635830422863],['target'],,,,,NK,1,2024-10-04_11h28.09.880,V3,2024.1.5,2024-10-04 11h28.32.152801 +0530
54,0,54,0,95.43838538,,,,,,,,,95.41304358,5,95.43838538,95.43838538,0.01501325,97.33526229,[-0.34444444444444444],[0.32],[1],[0],[0],[1.907814583973959],['target'],,,,,NK,1,2024-10-04_11h28.09.880,V3,2024.1.5,2024-10-04 11h28.32.152801 +0530
55,0,55,0,97.38260858,,,,,,,,,97.33929938,10,97.38260858,97.38260858,0.028794209,99.71279988,[0.017777777777777778],[-0.22111111111111112],[1],[0],[0],[2.345300166052766],['target'],,,,,NK,1,2024-10-04_11h28.09.880,V3,2024.1.5,2024-10-04 11h28.32.152801 +0530
56,0,56,0,99.74345058,,,,,,,,,99.71707092,5,99.74345058,99.74345058,0.01584875,101.6428534,[0.40555555555555556],[0.10777777777777778],[1],[0],[0],[1.9106074169976637],['target'],,,,,NK,1,2024-10-04_11h28.09.880,V3,2024.1.5,2024-10-04 11h28.32.152801 +0530
57,0,57,0,101.6903702,,,,,,,,,101.6469284,10,101.6903702,101.6903702,0.028942625,103.6883617,[0.39111111111111113],[0.3688888888888889],[1],[0],[0],[2.0130667500197887],[],,,,,NK,1,2024-10-04_11h28.09.880,V3,2024.1.5,2024-10-04 11h28.32.152801 +0530
58,0,58,0,103.7357732,,,,,,,,,103.6924668,10,103.7357732,103.7357732,0.028805458,105.6156659,[0.3888888888888889],[0.48444444444444446],[1],[0],[0],[1.8949416669784114],['target'],,,,,NK,1,2024-10-04_11h28.09.880,V3,2024.1.5,2024-10-04 11h28.32.152801 +0530
59,0,59,0,105.6476897,,,,,,,,,105.6198674,5,105.6476897,105.6476897,0.016436708,107.3032539,[-0.37222222222222223],[0.32222222222222224],[0],[0],[0],[1.6675661660265177],['target'],,,,,NK,1,2024-10-04_11h28.09.880,V3,2024.1.5,2024-10-04 11h28.32.152801 +0530
60,0,60,0,107.349982,,,,,,,,,107.307339,10,107.349982,107.349982,0.028855875,109.2975718,[0.3244444444444444],[0.27111111111111114],[1],[0],[0],[1.96191125002224],['target'],,,,,NK,1,2024-10-04_11h28.09.880,V3,2024.1.5,2024-10-04 11h28.32.152801 +0530
61,0,61,0,109.3461059,,,,,,,,,109.3017622,10,109.3461059,109.3461059,0.029122083,111.1888002,[-0.29555555555555557],[0.15555555555555556],[1],[0],[0],[1.8585296249948442],['target'],,,,,NK,1,2024-10-04_11h28.09.880,V3,2024.1.5,2024-10-04 11h28.32.152801 +0530
62,0,62,0,111.2184011,,,,,,,,,111.1929251,5,111.2184011,111.2184011,0.015155458,115.3387474,[-0.20222222222222222],[0.4722222222222222],[1],[0],[0],[4.131209583953023],['target'],,,,,NK,1,2024-10-04_11h28.09.880,V3,2024.1.5,2024-10-04 11h28.32.152801 +0530
63,0,63,0,115.3704401,,,,,,,,,115.3430585,5,115.3704401,115.3704401,0.015937375,117.6766352,[-0.06888888888888889],[0.058888888888888886],[1],[0],[0],[2.3181670419871807],['target'],,,,,NK,1,2024-10-04_11h28.09.880,V3,2024.1.5,2024-10-04 11h28.32.152801 +0530
64,0,64,0,117.7065182,,,,,,,,,117.6807387,5,117.7065182,117.7065182,0.01519475,119.3765739,[0.38222222222222224],[-0.16444444444444445],[1],[0],[0],[1.6812331250403076],['target'],,,,,NK,1,2024-10-04_11h28.09.880,V3,2024.1.5,2024-10-04 11h28.32.152801 +0530
65,0,65,0,119.4061758,,,,,,,,,119.3806435,5,119.4061758,119.4061758,0.015347041,120.7597653,[0.08333333333333333],[0.03666666666666667],[1],[0],[0],[1.3644064590334892],['target'],,,,,NK,1,2024-10-04_11h28.09.880,V3,2024.1.5,2024-10-04 11h28.32.152801 +0530
66,0,66,0,120.789508,,,,,,,,,120.763866,5,120.789508,120.789508,0.015088583,122.1830255,[0.3877777777777778],[-0.03111111111111111],[1],[0],[0],[1.404685000074096],['target'],,,,,NK,1,2024-10-04_11h28.09.880,V3,2024.1.5,2024-10-04 11h28.32.152801 +0530
67,0,67,0,122.2304444,,,,,,,,,122.1870732,10,122.2304444,122.2304444,0.028721208,124.1086137,[0.21888888888888888],[-0.36],[1],[0],[0],[1.8933911670465022],['target'],,,,,NK,1,2024-10-04_11h28.09.880,V3,2024.1.5,2024-10-04 11h28.32.152801 +0530
68,0,68,0,124.1559664,,,,,,,,,124.1127572,10,124.1559664,124.1559664,0.02874775,126.7035715,[-0.38222222222222224],[0.01888888888888889],[1],[0],[0],[2.5626851249253377],['target'],,,,,NK,1,2024-10-04_11h28.09.880,V3,2024.1.5,2024-10-04 11h28.32.152801 +0530
69,0,69,0,126.7508896,,,,,,,,,126.707731,10,126.7508896,126.7508896,0.028645083,130.1305323,[-0.43777777777777777],[-0.33],[1],[0],[0],[3.3947389581007883],['target'],,,,,NK,1,2024-10-04_11h28.09.880,V3,2024.1.5,2024-10-04 11h28.32.152801 +0530
70,0,70,0,130.1784894,,,,,,,,,130.1347164,10,130.1784894,130.1784894,0.029210917,131.5174117,[-0.27555555555555555],[-0.17555555555555555],[1],[0],[0],[1.3540955000789836],['target'],,,,,NK,1,2024-10-04_11h28.09.880,V3,2024.1.5,2024-10-04 11h28.32.152801 +0530
71,0,71,0,131.5644767,,,,,,,,,131.5215505,10,131.5644767,131.5644767,0.02857925,133.452189,[-0.042222222222222223],[0.48444444444444446],[0],[0],[0],[1.9026030839886516],['target'],,,,,NK,1,2024-10-04_11h28.09.880,V3,2024.1.5,2024-10-04 11h28.32.152801 +0530
72,0,72,0,133.4998913,,,,,,,,,133.4563128,10,133.4998913,133.4998913,0.029009334,134.5767631,[0.42],[0.38333333333333336],[1],[0],[0],[1.0920440839836374],['target'],,,,,NK,1,2024-10-04_11h28.09.880,V3,2024.1.5,2024-10-04 11h28.32.152801 +0530
73,0,73,0,134.6240362,,,,,,,,,134.5808725,10,134.6240362,134.6240362,0.028724542,136.4103092,[0.33666666666666667],[-0.08666666666666667],[1],[0],[0],[1.8013127500889823],[],,,,,NK,1,2024-10-04_11h28.09.880,V3,2024.1.5,2024-10-04 11h28.32.152801 +0530
74,0,74,0,136.4574873,,,,,,,,,136.414389,10,136.4574873,136.4574873,0.028679292,139.158049,[-0.44555555555555554],[0.08888888888888889],[1],[0],[0],[2.7155613750219345],['target'],,,,,NK,1,2024-10-04_11h28.09.880,V3,2024.1.5,2024-10-04 11h28.32.152801 +0530
75,0,75,0,139.2057065,,,,,,,,,139.1622044,10,139.2057065,139.2057065,0.028855416,141.553981,[0.43777777777777777],[0.16111111111111112],[1],[0],[0],[2.363493415992707],['target'],,,,,NK,1,2024-10-04_11h28.09.880,V3,2024.1.5,2024-10-04 11h28.32.152801 +0530
76,0,76,0,141.5835197,,,,,,,,,141.558074,5,141.5835197,141.5835197,0.01513875,142.6106923,[0.3655555555555556],[-0.06888888888888889],[1],[0],[0],[1.0380858749849722],['target'],,,,,NK,1,2024-10-04_11h28.09.880,V3,2024.1.5,2024-10-04 11h28.32.152801 +0530
77,0,77,0,142.6402716,,,,,,,,,142.6147615,5,142.6402716,142.6402716,0.014965333,143.4442299,[0.43555555555555553],[0.12222222222222222],[1],[0],[0],[0.8151074580382556],['target'],,,,,NK,1,2024-10-04_11h28.09.880,V3,2024.1.5,2024-10-04 11h28.32.152801 +0530
78,0,78,0,143.473537,,,,,,,,,143.4482465,5,143.473537,143.473537,0.0149925,144.0669608,[0.43555555555555553],[0.12222222222222222],[1],[0],[0],[0.6043409999692813],[],,,,,NK,1,2024-10-04_11h28.09.880,V3,2024.1.5,2024-10-04 11h28.32.152801 +0530
79,0,79,0,144.0964344,,,,,,,,,144.0710421,5,144.0964344,144.0964344,0.01486575,144.227528,[0.43555555555555553],[0.12222222222222222],[1],[0],[0],[0.1422606250271201],[],,,,,NK,1,2024-10-04_11h28.09.880,V3,2024.1.5,2024-10-04 11h28.32.152801 +0530
80,0,80,0,144.2747416,,,,,,,,,144.231617,10,144.2747416,144.2747416,0.028669583,144.6274457,[0.43555555555555553],[0.12222222222222222],[1],[0],[0],[0.36773454200010747],[],,,,,NK,1,2024-10-04_11h28.09.880,V3,2024.1.5,2024-10-04 11h28.32.152801 +0530
81,0,81,0,144.6747883,,,,,,,,,144.6315267,10,144.6747883,144.6747883,0.028408459,147.6309077,[-0.42777777777777776],[0.2688888888888889],[1],[0],[0],[2.9715792080387473],['target'],,,,,NK,1,2024-10-04_11h28.09.880,V3,2024.1.5,2024-10-04 11h28.32.152801 +0530
82,0,82,0,147.6785316,,,,,,,,,147.635002,10,147.6785316,147.6785316,0.028794208,149.564656,[-0.08],[-0.3188888888888889],[1],[0],[0],[1.9013553330441937],['target'],,,,,NK,1,2024-10-04_11h28.09.880,V3,2024.1.5,2024-10-04 11h28.32.152801 +0530
83,0,83,0,149.5945091,,,,,,,,,149.5688042,5,149.5945091,149.5945091,0.015275167,151.1575395,[0.09333333333333334],[0.47444444444444445],[1],[0],[0],[1.5740352499997243],['target'],,,,,NK,1,2024-10-04_11h28.09.880,V3,2024.1.5,2024-10-04 11h28.32.152801 +0530
84,0,84,0,151.2062555,,,,,,,,,151.1616232,10,151.2062555,151.2062555,0.029329625,152.7005771,[0.4122222222222222],[0.4777777777777778],[1],[0],[0],[1.5100941250566393],[],,,,,NK,1,2024-10-04_11h28.09.880,V3,2024.1.5,2024-10-04 11h28.32.152801 +0530
85,0,85,0,152.7486755,,,,,,,,,152.7046489,10,152.7486755,152.7486755,0.028579416,154.1690293,[-0.14444444444444443],[0.12777777777777777],[0],[0],[0],[1.4363845839397982],['target'],,,,,NK,1,2024-10-04_11h28.09.880,V3,2024.1.5,2024-10-04 11h28.32.152801 +0530
86,0,86,0,154.2160066,,,,,,,,,154.1731864,10,154.2160066,154.2160066,0.028816708,156.4047924,[-0.3],[-0.1988888888888889],[0],[0],[0],[2.2033665409544483],['target'],,,,,NK,1,2024-10-04_11h28.09.880,V3,2024.1.5,2024-10-04 11h28.32.152801 +0530
87,0,87,0,156.4344347,,,,,,,,,156.4088896,5,156.4344347,156.4344347,0.015855875,158.0044719,[-0.10222222222222223],[-0.03],[1],[0],[0],[1.5803595420438796],['target'],,,,,NK,1,2024-10-04_11h28.09.880,V3,2024.1.5,2024-10-04 11h28.32.152801 +0530
88,0,88,0,158.0518261,,,,,,,,,158.0085393,10,158.0518261,158.0518261,0.028765292,159.854011,[-0.46444444444444444],[-0.07333333333333333],[1],[0],[0],[1.8172779170563444],['target'],,,,,NK,1,2024-10-04_11h28.09.880,V3,2024.1.5,2024-10-04 11h28.32.152801 +0530
89,0,89,0,159.9015163,,,,,,,,,159.8581118,10,159.9015163,159.9015163,0.028551834,161.48171,[-0.41],[-0.2544444444444444],[1],[0],[0],[1.595570040983148],['target'],,,,,NK,1,2024-10-04_11h28.09.880,V3,2024.1.5,2024-10-04 11h28.32.152801 +0530
90,0,90,0,161.5113425,,,,,,,,,161.4858365,5,161.5113425,161.5113425,0.015176625,163.3212989,[-0.06888888888888889],[0.2588888888888889],[1],[0],[0],[1.82083258300554],['target'],,,,,NK,1,2024-10-04_11h28.09.880,V3,2024.1.5,2024-10-04 11h28.32.152801 +0530
91,0,91,0,163.3506097,,,,,,,,,163.3253627,5,163.3506097,163.3506097,0.014875542,164.4214836,[0.021111111111111112],[0.044444444444444446],[1],[0],[0],[1.0817218329757452],['target'],,,,,NK,1,2024-10-04_11h28.09.880,V3,2024.1.5,2024-10-04 11h28.32.152801 +0530
92,0,92,0,164.4700045,,,,,,,,,164.4257319,10,164.4700045,164.4700045,0.029465417,166.3566411,[0.016666666666666666],[0.41],[1],[0],[0],[1.9020652909530327],['target'],,,,,NK,1,2024-10-04_11h28.09.880,V3,2024.1.5,2024-10-04 11h28.32.152801 +0530
93,0,93,0,166.4041485,,,,,,,,,166.3608011,10,166.4041485,166.4041485,0.028786959,167.5900616,[-0.18333333333333332],[0.09],[1],[0],[0],[1.2010718330275267],['target'],,,,,NK,1,2024-10-04_11h28.09.880,V3,2024.1.5,2024-10-04 11h28.32.152801 +0530
94,0,94,0,167.6372718,,,,,,,,,167.5942798,10,167.6372718,167.6372718,0.0286975,170.044517,[-0.3233333333333333],[-0.2644444444444444],[1],[0],[0],[2.422163749928586],['target'],,,,,NK,1,2024-10-04_11h28.09.880,V3,2024.1.5,2024-10-04 11h28.32.152801 +0530
95,0,95,0,170.0743327,,,,,,,,,170.0487173,5,170.0743327,170.0743327,0.015231958,171.4050154,[-0.2644444444444444],[0.44333333333333336],[0],[0],[0],[1.3416769169270992],['target'],,,,,NK,1,2024-10-04_11h28.09.880,V3,2024.1.5,2024-10-04 11h28.32.152801 +0530
96,0,96,0,171.4338886,,,,,,,,,171.4091084,5,171.4338886,171.4338886,0.014916792,172.8878509,[0.03111111111111111],[-0.07],[1],[0],[0],[1.464429666986689],['target'],,,,,NK,1,2024-10-04_11h28.09.880,V3,2024.1.5,2024-10-04 11h28.32.152801 +0530
97,0,97,0,172.9352431,,,,,,,,,172.8920031,10,172.9352431,172.9352431,0.028580333,174.3148314,[-0.19666666666666666],[0.17888888888888888],[1],[0],[0],[1.3947964999824762],['target'],,,,,NK,1,2024-10-04_11h28.09.880,V3,2024.1.5,2024-10-04 11h28.32.152801 +0530
98,0,98,0,174.3622548,,,,,,,,,174.318933,10,174.3622548,174.3622548,0.028617333,177.2669168,[-0.4766666666666667],[-0.47333333333333333],[1],[0],[0],[2.9198930410202593],['target'],,,,,NK,1,2024-10-04_11h28.09.880,V3,2024.1.5,2024-10-04 11h28.32.152801 +0530
99,0,99,0,177.3190741,,,,,,,,,177.271144,10,177.3190741,177.3190741,0.031843667,178.8717434,[0.13444444444444445],[0.2811111111111111],[1],[0],[0],[1.5693802910391241],['target'],,,,,NK,1,2024-10-04_11h28.09.880,V3,2024.1.5,2024-10-04 11h28.32.152801 +0530
100,0,100,0,178.9014696,,,,,,,,,178.8759134,5,178.9014696,178.9014696,0.0151445,181.0952602,[0.45],[-0.29777777777777775],[1],[0],[0],[2.2048112499760464],[],,,,,NK,1,2024-10-04_11h28.09.880,V3,2024.1.5,2024-10-04 11h28.32.152801 +0530
101,0,101,0,181.1429428,,,,,,,,,181.0993942,10,181.1429428,181.1429428,0.028785875,186.0489485,[-0.21444444444444444],[-0.28555555555555556],[1],[0],[0],[4.9213115000166],[],,,,,NK,1,2024-10-04_11h28.09.880,V3,2024.1.5,2024-10-04 11h28.32.152801 +0530
102,0,102,0,186.0785776,,,,,,,,,186.0530632,5,186.0785776,186.0785776,0.015238625,187.1285333,[-0.12222222222222222],[-0.10888888888888888],[1],[0],[0],[1.0607776250690222],['target'],,,,,NK,1,2024-10-04_11h28.09.880,V3,2024.1.5,2024-10-04 11h28.32.152801 +0530
103,0,103,0,187.176035,,,,,,,,,187.132593,10,187.176035,187.176035,0.028753666,189.439906,[-0.29888888888888887],[0.4444444444444444],[1],[0],[0],[2.2791827500332147],[],,,,,NK,1,2024-10-04_11h28.09.880,V3,2024.1.5,2024-10-04 11h28.32.152801 +0530
104,0,104,0,189.4694305,,,,,,,,,189.4440295,5,189.4694305,189.4694305,0.015166209,190.7218245,[-0.3],[0.3244444444444444],[1],[0],[0],[1.2632380420109257],['target'],,,,,NK,1,2024-10-04_11h28.09.880,V3,2024.1.5,2024-10-04 11h28.32.152801 +0530
105,0,105,0,190.7695777,,,,,,,,,190.7260185,10,190.7695777,190.7695777,0.028995625,192.7771663,[0.3388888888888889],[0.11],[1],[0],[0],[2.0227922089397907],['target'],,,,,NK,1,2024-10-04_11h28.09.880,V3,2024.1.5,2024-10-04 11h28.32.152801 +0530
106,0,106,0,192.8072784,,,,,,,,,192.7813011,5,192.8072784,192.8072784,0.015518708,193.6621955,[0.13666666666666666],[0.4288888888888889],[1],[0],[0],[0.8659626669250429],['target'],,,,,NK,1,2024-10-04_11h28.09.880,V3,2024.1.5,2024-10-04 11h28.32.152801 +0530
107,0,107,0,193.709263,,,,,,,,,193.6662574,10,193.709263,193.709263,0.028626458,196.3988424,[-0.18888888888888888],[-0.3111111111111111],[1],[0],[0],[2.7045467499410734],['target'],,,,,NK,1,2024-10-04_11h28.09.880,V3,2024.1.5,2024-10-04 11h28.32.152801 +0530
108,0,108,0,196.4465322,,,,,,,,,196.4029784,10,196.4465322,196.4465322,0.028985625,198.8621254,[-0.47444444444444445],[-0.31777777777777777],[1],[0],[0],[2.430779500049539],['target'],,,,,NK,1,2024-10-04_11h28.09.880,V3,2024.1.5,2024-10-04 11h28.32.152801 +0530
109,0,109,0,198.8920146,,,,,,,,,198.8662348,5,198.8920146,198.8920146,0.015398333,200.66247,[0.52],[-0.2],[1],[0],[0],[1.7814436668995768],['target'],,,,,NK,1,2024-10-04_11h28.09.880,V3,2024.1.5,2024-10-04 11h28.32.152801 +0530
110,0,110,0,200.6922944,,,,,,,,,200.6665553,5,200.6922944,200.6922944,0.014966583,205.8128405,[0.056666666666666664],[-0.4688888888888889],[1],[0],[0],[5.1318007910158485],['target'],,,,,NK,1,2024-10-04_11h28.09.880,V3,2024.1.5,2024-10-04 11h28.32.152801 +0530
111,0,111,0,205.8600316,,,,,,,,,205.8169196,10,205.8600316,205.8600316,0.028542958,208.1945724,[0.39111111111111113],[0.4111111111111111],[1],[0],[0],[2.349663458066061],[],,,,,NK,1,2024-10-04_11h28.09.880,V3,2024.1.5,2024-10-04 11h28.32.152801 +0530
112,0,112,0,208.2241353,,,,,,,,,208.1986895,5,208.2241353,208.2241353,0.015223375,210.0144106,[0.21777777777777776],[-0.027777777777777776],[1],[0],[0],[1.800975084071979],['target'],,,,,NK,1,2024-10-04_11h28.09.880,V3,2024.1.5,2024-10-04 11h28.32.152801 +0530
113,0,113,0,210.0653637,,,,,,,,,210.0189297,10,210.0653637,210.0653637,0.031274208,210.8741105,[0.10333333333333333],[0.12222222222222222],[1],[0],[0],[0.824490875005722],['target'],,,,,NK,1,2024-10-04_11h28.09.880,V3,2024.1.5,2024-10-04 11h28.32.152801 +0530
114,0,114,0,210.9254237,,,,,,,,,210.8783128,10,210.9254237,210.9254237,0.029833625,212.81429,[0.1988888888888889],[0.49777777777777776],[1],[0],[0],[1.906622915994376],['target'],,,,,NK,1,2024-10-04_11h28.09.880,V3,2024.1.5,2024-10-04 11h28.32.152801 +0530
115,0,115,0,212.8647229,,,,,,,,,212.8188274,10,212.8647229,212.8647229,0.030764958,214.5129768,[-0.06444444444444444],[0.4577777777777778],[1],[0],[0],[1.6639624169329181],['target'],,,,,NK,1,2024-10-04_11h28.09.880,V3,2024.1.5,2024-10-04 11h28.32.152801 +0530
116,0,116,0,214.560712,,,,,,,,,214.5170567,10,214.560712,214.560712,0.028856583,215.5918428,[0.4444444444444444],[0.12444444444444444],[1],[0],[0],[1.0464644159656018],['target'],,,,,NK,1,2024-10-04_11h28.09.880,V3,2024.1.5,2024-10-04 11h28.32.152801 +0530
117,0,117,0,215.6213146,,,,,,,,,215.5959856,5,215.6213146,215.6213146,0.015091708,217.522609,[0.38222222222222224],[-0.01],[1],[0],[0],[1.912144707981497],['target'],,,,,NK,1,2024-10-04_11h28.09.880,V3,2024.1.5,2024-10-04 11h28.32.152801 +0530
118,0,118,0,217.5695895,,,,,,,,,217.5266849,10,217.5695895,217.5695895,0.028503292,218.9129609,[-0.41],[0.1322222222222222],[1],[0],[0],[1.3583410419523716],['target'],,,,,NK,1,2024-10-04_11h28.09.880,V3,2024.1.5,2024-10-04 11h28.32.152801 +0530
119,0,119,0,218.9604761,,,,,,,,,218.9170873,10,218.9604761,218.9604761,0.028752917,220.2375723,[-0.1711111111111111],[0.19111111111111112],[1],[0],[0],[1.2921672079246491],['target'],,,,,NK,1,2024-10-04_11h28.09.880,V3,2024.1.5,2024-10-04 11h28.32.152801 +0530
120,0,120,0,220.2849833,,,,,,,,,220.2417162,10,220.2849833,220.2849833,0.028969,221.3917207,[0.07333333333333333],[0.01],[1],[0],[0],[1.1217092089354992],['target'],,,,,NK,1,2024-10-04_11h28.09.880,V3,2024.1.5,2024-10-04 11h28.32.152801 +0530
121,0,121,0,221.4210456,,,,,,,,,221.3958333,5,221.4210456,221.4210456,0.01505575,222.3461582,[0.05555555555555555],[-0.35],[1],[0],[0],[0.9357998750638217],['target'],,,,,NK,1,2024-10-04_11h28.09.880,V3,2024.1.5,2024-10-04 11h28.32.152801 +0530
122,0,122,0,222.3756913,,,,,,,,,222.3501921,5,222.3756913,222.3756913,0.014941667,223.4301542,[-0.13111111111111112],[0.3388888888888889],[1],[0],[0],[1.0655896249227226],[],,,,,NK,1,2024-10-04_11h28.09.880,V3,2024.1.5,2024-10-04 11h28.32.152801 +0530
123,0,123,0,223.4598577,,,,,,,,,223.4342726,5,223.4598577,223.4598577,0.015071458,225.9860635,[0.41],[0.3233333333333333],[1],[0],[0],[2.5373497910331935],['target'],,,,,NK,1,2024-10-04_11h28.09.880,V3,2024.1.5,2024-10-04 11h28.32.152801 +0530
124,0,124,0,226.0333719,,,,,,,,,225.9901355,10,226.0333719,226.0333719,0.028426334,227.2153895,[0.33],[0.2922222222222222],[1],[0],[0],[1.1974137080833316],['target'],,,,,NK,1,2024-10-04_11h28.09.880,V3,2024.1.5,2024-10-04 11h28.32.152801 +0530
125,0,125,0,227.2449476,,,,,,,,,227.2194862,5,227.2449476,227.2449476,0.015071917,228.713162,[-0.3711111111111111],[0.09111111111111111],[1],[0],[0],[1.4791769579751417],['target'],,,,,NK,1,2024-10-04_11h28.09.880,V3,2024.1.5,2024-10-04 11h28.32.152801 +0530
126,0,126,0,228.7429387,,,,,,,,,228.7172504,5,228.7429387,228.7429387,0.015100458,230.9067495,[-0.10222222222222223],[-0.1622222222222222],[1],[0],[0],[2.1750171249732375],['target'],,,,,NK,1,2024-10-04_11h28.09.880,V3,2024.1.5,2024-10-04 11h28.32.152801 +0530
127,0,127,0,230.9366984,,,,,,,,,230.91091,5,230.9366984,230.9366984,0.015316417,232.6967768,[-0.21777777777777776],[0.042222222222222223],[1],[0],[0],[1.7710837499471381],[],,,,,NK,1,2024-10-04_11h28.09.880,V3,2024.1.5,2024-10-04 11h28.32.152801 +0530
128,0,128,0,232.7446163,,,,,,,,,232.7008733,10,232.7446163,232.7446163,0.029139458,233.7620975,[-0.0033333333333333335],[-0.052222222222222225],[1],[0],[0],[1.0325489169918],[],,,,,NK,1,2024-10-04_11h28.09.880,V3,2024.1.5,2024-10-04 11h28.32.152801 +0530
129,0,129,0,233.8094,,,,,,,,,233.766207,10,233.8094,233.8094,0.028706792,234.8695033,[0.44666666666666666],[0.07333333333333333],[1],[0],[0],[1.0750937080010772],[],,,,,NK,1,2024-10-04_11h28.09.880,V3,2024.1.5,2024-10-04 11h28.32.152801 +0530
130,0,130,0,234.8990454,,,,,,,,,234.8735804,5,234.8990454,234.8990454,0.014972666,236.0735655,[0.1811111111111111],[-0.4922222222222222],[1],[0],[0],[1.185591374989599],[],,,,,NK,1,2024-10-04_11h28.09.880,V3,2024.1.5,2024-10-04 11h28.32.152801 +0530
131,0,131,0,236.1041393,,,,,,,,,236.077768,5,236.1041393,236.1041393,0.014962833,238.0897948,[-0.11666666666666667],[-0.25555555555555554],[1],[0],[0],[1.9977180839050561],['target'],,,,,NK,1,2024-10-04_11h28.09.880,V3,2024.1.5,2024-10-04 11h28.32.152801 +0530
132,0,132,0,238.1372601,,,,,,,,,238.0938953,10,238.1372601,238.1372601,0.028806167,240.6960864,[-0.47],[-0.3022222222222222],[1],[0],[0],[2.5739305410534143],['target'],,,,,NK,1,2024-10-04_11h28.09.880,V3,2024.1.5,2024-10-04 11h28.32.152801 +0530
133,0,133,0,240.7444416,,,,,,,,,240.7002717,10,240.7444416,240.7444416,0.029238375,242.062055,[-0.25222222222222224],[0.3433333333333333],[1],[0],[0],[1.3331244579749182],[],,,,,NK,1,2024-10-04_11h28.09.880,V3,2024.1.5,2024-10-04 11h28.32.152801 +0530
134,0,134,0,242.109599,,,,,,,,,242.0661914,10,242.109599,242.109599,0.028803208,243.0734965,[-0.19111111111111112],[0.12333333333333334],[1],[0],[0],[0.9790702090831473],[],,,,,NK,1,2024-10-04_11h28.09.880,V3,2024.1.5,2024-10-04 11h28.32.152801 +0530
135,0,135,0,243.120723,,,,,,,,,243.0775488,10,243.120723,243.120723,0.028788833,244.0212853,[-0.23555555555555555],[-0.03666666666666667],[1],[0],[0],[0.9154572919942439],['target'],,,,,NK,1,2024-10-04_11h28.09.880,V3,2024.1.5,2024-10-04 11h28.32.152801 +0530
136,0,136,0,244.0684173,,,,,,,,,244.0253903,10,244.0684173,244.0684173,0.028544792,246.1714831,[-0.4033333333333333],[0.5],[1],[0],[0],[2.1177866669604555],[],,,,,NK,1,2024-10-04_11h28.09.880,V3,2024.1.5,2024-10-04 11h28.32.152801 +0530
137,0,137,0,246.2017433,,,,,,,,,246.1755876,5,246.2017433,246.2017433,0.015417459,248.5474789,[-0.15444444444444444],[-0.33111111111111113],[1],[0],[0],[2.3570479579502717],['target'],,,,,NK,1,2024-10-04_11h28.09.880,V3,2024.1.5,2024-10-04 11h28.32.152801 +0530
138,0,138,0,248.5767811,,,,,,,,,248.5515408,5,248.5767811,248.5767811,0.014932292,250.1367732,[-0.37222222222222223],[0.3055555555555556],[1],[0],[0],[1.5708959579933435],[],,,,,NK,1,2024-10-04_11h28.09.880,V3,2024.1.5,2024-10-04 11h28.32.152801 +0530
139,0,139,0,250.1839322,,,,,,,,,250.1407944,10,250.1839322,250.1839322,0.028616708,253.0572002,[-0.08666666666666667],[-0.3111111111111111],[1],[0],[0],[2.8883386249653995],[],,,,,NK,1,2024-10-04_11h28.09.880,V3,2024.1.5,2024-10-04 11h28.32.152801 +0530
140,0,140,0,253.0866844,,,,,,,,,253.0613119,5,253.0866844,253.0866844,0.015023708,256.7805045,[0.44222222222222224],[0.08555555555555555],[1],[0],[0],[3.7047871670220047],['target'],,,,,NK,1,2024-10-04_11h28.09.880,V3,2024.1.5,2024-10-04 11h28.32.152801 +0530
141,0,141,0,256.828013,,,,,,,,,256.7845718,10,256.828013,256.828013,0.028804958,258.4804363,[0.29555555555555557],[-0.15444444444444444],[1],[0],[0],[1.6676541669294238],['target'],,,,,NK,1,2024-10-04_11h28.09.880,V3,2024.1.5,2024-10-04 11h28.32.152801 +0530
142,0,142,0,258.5275032,,,,,,,,,258.4845636,10,258.5275032,258.5275032,0.028426625,259.7679248,[-0.012222222222222223],[0.09333333333333334],[1],[0],[0],[1.2555099580204114],['target'],,,,,NK,1,2024-10-04_11h28.09.880,V3,2024.1.5,2024-10-04 11h28.32.152801 +0530
143,0,143,0,259.7976703,,,,,,,,,259.7721031,5,259.7976703,259.7976703,0.01537725,261.264301,[-0.07222222222222222],[-0.25333333333333335],[1],[0],[0],[1.4773259590147063],['target'],,,,,NK,1,2024-10-04_11h28.09.880,V3,2024.1.5,2024-10-04 11h28.32.152801 +0530
144,0,144,0,261.2937415,,,,,,,,,261.2683757,5,261.2937415,261.2937415,0.015004,262.8740378,[0.0033333333333333335],[0.2822222222222222],[1],[0],[0],[1.591267167008482],['target'],,,,,NK,1,2024-10-04_11h28.09.880,V3,2024.1.5,2024-10-04 11h28.32.152801 +0530
145,0,145,0,262.9032967,,,,,,,,,262.8782035,5,262.9032967,262.9032967,0.015402833,263.7571538,[0.0011111111111111111],[0.31222222222222223],[1],[0],[0],[0.8641830410342664],['target'],,,,,NK,1,2024-10-04_11h28.09.880,V3,2024.1.5,2024-10-04 11h28.32.152801 +0530
146,0,146,0,263.804173,,,,,,,,,263.7612135,10,263.804173,263.804173,0.02854275,265.0434249,[0.03222222222222222],[-0.13333333333333333],[1],[0],[0],[1.2542113329982385],[],,,,,NK,1,2024-10-04_11h28.09.880,V3,2024.1.5,2024-10-04 11h28.32.152801 +0530
147,0,147,0,265.073036,,,,,,,,,265.0476383,5,265.073036,265.073036,0.015008375,265.9637999,[-0.04777777777777778],[-0.28],[1],[0],[0],[0.9017510419944301],['target'],,,,,NK,1,2024-10-04_11h28.09.880,V3,2024.1.5,2024-10-04 11h28.32.152801 +0530
148,0,148,0,266.0109523,,,,,,,,,265.9678741,10,266.0109523,266.0109523,0.02848175,267.4627043,[-0.45444444444444443],[0.11666666666666667],[1],[0],[0],[1.4667675000382587],['target'],,,,,NK,1,2024-10-04_11h28.09.880,V3,2024.1.5,2024-10-04 11h28.32.152801 +0530
149,0,149,0,267.536605,,,,,,,,,267.468949,10,267.536605,267.536605,0.04486925,269.6476729,[0.45222222222222225],[0.48444444444444446],[1],[0],[0],[2.1348855830729008],['target'],,,,,NK,1,2024-10-04_11h28.09.880,V3,2024.1.5,2024-10-04 11h28.32.152801 +0530
150,0,150,0,269.696238,,,,,,,,,269.6518425,10,269.696238,269.696238,0.028977542,270.9663637,[-0.15777777777777777],[0.44],[1],[0],[0],[1.2860339999897406],['target'],,,,,NK,1,2024-10-04_11h28.09.880,V3,2024.1.5,2024-10-04 11h28.32.152801 +0530
151,0,151,0,271.0151948,,,,,,,,,270.9707528,10,271.0151948,271.0151948,0.02948175,272.8655653,[-0.37222222222222223],[0.13444444444444445],[1],[0],[0],[1.8658806249732152],['target'],,,,,NK,1,2024-10-04_11h28.09.880,V3,2024.1.5,2024-10-04 11h28.32.152801 +0530
152,0,152,0,272.9150815,,,,,,,,,272.8697487,10,272.9150815,272.9150815,0.029870084,274.43914,[0.23777777777777778],[0.45111111111111113],[0],[0],[0],[1.5401119579328224],['target'],,,,,NK,1,2024-10-04_11h28.09.880,V3,2024.1.5,2024-10-04 11h28.32.152801 +0530
153,0,153,0,274.4857846,,,,,,,,,274.4433019,10,274.4857846,274.4857846,0.028342292,277.4726873,[-0.4088888888888889],[-0.4722222222222222],[0],[0],[0],[3.00159670796711],['target'],,,,,NK,1,2024-10-04_11h28.09.880,V3,2024.1.5,2024-10-04 11h28.32.152801 +0530
154,0,154,0,277.5016267,,,,,,,,,277.4768083,5,277.5016267,277.5016267,0.015189459,278.7915498,[-0.3877777777777778],[0.31777777777777777],[1],[0],[0],[1.300151208997704],[],,,,,NK,1,2024-10-04_11h28.09.880,V3,2024.1.5,2024-10-04 11h28.32.152801 +0530
155,0,155,0,278.8209874,,,,,,,,,278.7955932,5,278.8209874,278.8209874,0.01483375,280.3045453,[0.15777777777777777],[-0.2088888888888889],[1],[0],[0],[1.494662499986589],['target'],,,,,NK,1,2024-10-04_11h28.09.880,V3,2024.1.5,2024-10-04 11h28.32.152801 +0530
156,0,156,0,280.3519793,,,,,,,,,280.3086422,10,280.3519793,280.3519793,0.02887425,282.405497,[0.3611111111111111],[0.25666666666666665],[1],[0],[0],[2.0685828749556094],[],,,,,NK,1,2024-10-04_11h28.09.880,V3,2024.1.5,2024-10-04 11h28.32.152801 +0530
157,0,157,0,282.4346315,,,,,,,,,282.409591,5,282.4346315,282.4346315,0.015078875,283.4979225,[-0.05333333333333334],[0.3788888888888889],[1],[0],[0],[1.0738917919807136],['target'],,,,,NK,1,2024-10-04_11h28.09.880,V3,2024.1.5,2024-10-04 11h28.32.152801 +0530
158,0,158,0,283.527273,,,,,,,,,283.5019837,5,283.527273,283.527273,0.014932125,285.4146024,[0.4255555555555556],[-0.2688888888888889],[1],[0],[0],[1.8982745000394061],['target'],,,,,NK,1,2024-10-04_11h28.09.880,V3,2024.1.5,2024-10-04 11h28.32.152801 +0530
159,0,159,0,285.4617325,,,,,,,,,285.4186393,10,285.4617325,285.4617325,0.028776875,288.3585092,[0.09777777777777778],[0.06333333333333334],[0],[0],[0],[2.9113397089531645],['target'],,,,,NK,1,2024-10-04_11h28.09.880,V3,2024.1.5,2024-10-04 11h28.32.152801 +0530
160,0,160,0,288.4152573,,,,,,,,,288.3660999,5,288.4152573,288.4152573,0.028835584,290.5932094,[0.29888888888888887],[-0.37666666666666665],[1],[0],[0],[2.199600207968615],['target'],,,,,NK,1,2024-10-04_11h28.09.880,V3,2024.1.5,2024-10-04 11h28.32.152801 +0530
161,0,161,0,290.6252437,,,,,,,,,290.5977942,5,290.6252437,290.6252437,0.016688375,292.6413771,[0.5066666666666667],[-0.27111111111111114],[1],[0],[0],[2.027532459003851],[],,,,,NK,1,2024-10-04_11h28.09.880,V3,2024.1.5,2024-10-04 11h28.32.152801 +0530
162,0,162,0,292.6709664,,,,,,,,,292.6454472,5,292.6709664,292.6709664,0.015216375,295.1930483,[-0.30333333333333334],[-0.35333333333333333],[1],[0],[0],[2.5329505000263453],['target'],,,,,NK,1,2024-10-04_11h28.09.880,V3,2024.1.5,2024-10-04 11h28.32.152801 +0530
163,0,163,0,295.2407268,,,,,,,,,295.1972008,10,295.2407268,295.2407268,0.028967084,298.0855878,[-0.4688888888888889],[-0.21888888888888888],[1],[0],[0],[2.860099249985069],['target'],,,,,NK,1,2024-10-04_11h28.09.880,V3,2024.1.5,2024-10-04 11h28.32.152801 +0530
164,0,164,0,298.1150881,,,,,,,,,298.0896685,5,298.1150881,298.1150881,0.015119375,301.6485247,[0.33],[0.09888888888888889],[1],[0],[0],[3.5442400419851765],['target'],,,,,NK,1,2024-10-04_11h28.09.880,V3,2024.1.5,2024-10-04 11h28.32.152801 +0530
165,0,165,0,301.6779491,,,,,,,,,301.6525455,5,301.6779491,301.6779491,0.014908542,304.4817815,[0.41888888888888887],[0.1288888888888889],[1],[0],[0],[2.814900084049441],['target'],,,,,NK,1,2024-10-04_11h28.09.880,V3,2024.1.5,2024-10-04 11h28.32.152801 +0530
166,0,166,0,304.528577,,,,,,,,,304.4857956,10,304.528577,304.528577,0.028418959,306.6183348,[-0.31],[-0.02],[1],[0],[0],[2.104704916011542],['target'],,,,,NK,1,2024-10-04_11h28.09.880,V3,2024.1.5,2024-10-04 11h28.32.152801 +0530
167,0,167,0,306.6477166,,,,,,,,,306.6223749,5,306.6477166,306.6477166,0.015119042,309.8258557,[-0.3188888888888889],[-0.42],[0],[0],[0],[3.188942000037059],[],,,,,NK,1,2024-10-04_11h28.09.880,V3,2024.1.5,2024-10-04 11h28.32.152801 +0530
168,0,168,0,309.8732101,,,,,,,,,309.829882,10,309.8732101,309.8732101,0.0286225,312.3688152,[0.33],[0.19444444444444445],[1],[0],[0],[2.5108917499892414],['target'],,,,,NK,1,2024-10-04_11h28.09.880,V3,2024.1.5,2024-10-04 11h28.32.152801 +0530
169,0,169,0,312.4157235,,,,,,,,,312.3728948,10,312.4157235,312.4157235,0.028517834,314.3651882,[0.34555555555555556],[-0.08555555555555555],[1],[0],[0],[1.9643724999623373],[],,,,,NK,1,2024-10-04_11h28.09.880,V3,2024.1.5,2024-10-04 11h28.32.152801 +0530
170,0,170,0,314.4121512,,,,,,,,,314.3692654,10,314.4121512,314.4121512,0.028639375,316.735103,[-0.06888888888888889],[-0.3977777777777778],[1],[0],[0],[2.3378122919239104],['target'],,,,,NK,1,2024-10-04_11h28.09.880,V3,2024.1.5,2024-10-04 11h28.32.152801 +0530
171,0,171,0,316.7817487,,,,,,,,,316.7391551,10,316.7817487,316.7817487,0.028372584,318.314003,[-0.3611111111111111],[0.17222222222222222],[1],[0],[0],[1.5467546659056097],['target'],,,,,NK,1,2024-10-04_11h28.09.880,V3,2024.1.5,2024-10-04 11h28.32.152801 +0530
172,0,172,0,318.3996912,,,,,,,,,318.3220205,10,318.3996912,318.3996912,0.056155625,320.6858832,[0.021111111111111112],[-0.022222222222222223],[1],[0],[0],[2.3090694580459967],['target'],,,,,NK,1,2024-10-04_11h28.09.880,V3,2024.1.5,2024-10-04 11h28.32.152801 +0530
173,0,173,0,320.733255,,,,,,,,,320.6900311,10,320.733255,320.733255,0.0287695,323.321718,[0.3522222222222222],[0.49666666666666665],[1],[0],[0],[2.603493000031449],[],,,,,NK,1,2024-10-04_11h28.09.880,V3,2024.1.5,2024-10-04 11h28.32.152801 +0530
174,0,174,0,323.3523056,,,,,,,,,323.3258185,5,323.3523056,323.3523056,0.01573625,325.7757859,[0.12444444444444444],[-0.31666666666666665],[1],[0],[0],[2.4348531669238582],['target'],,,,,NK,1,2024-10-04_11h28.09.880,V3,2024.1.5,2024-10-04 11h28.32.152801 +0530
175,0,175,0,325.8069702,,,,,,,,,325.7798246,5,325.8069702,325.8069702,0.016740959,327.7323035,[-0.42],[0.41444444444444445],[1],[0],[0],[1.936363041982986],['target'],,,,,NK,1,2024-10-04_11h28.09.880,V3,2024.1.5,2024-10-04 11h28.32.152801 +0530
176,0,176,0,327.7796553,,,,,,,,,327.7363548,10,327.7796553,327.7796553,0.028950792,329.8021051,[0.3322222222222222],[-0.25555555555555554],[1],[0],[0],[2.037307249964215],['target'],,,,,NK,1,2024-10-04_11h28.09.880,V3,2024.1.5,2024-10-04 11h28.32.152801 +0530
177,0,177,0,329.8503286,,,,,,,,,329.8062281,10,329.8503286,329.8503286,0.029150292,331.363965,[-0.3411111111111111],[-0.06555555555555556],[1],[0],[0],[1.5291590000269935],['target'],,,,,NK,1,2024-10-04_11h28.09.880,V3,2024.1.5,2024-10-04 11h28.32.152801 +0530
178,0,178,0,331.4114959,,,,,,,,,331.3681772,10,331.4114959,331.4114959,0.028959833,333.0987244,[0.45111111111111113],[0.3888888888888889],[1],[0],[0],[1.7021407498978078],['target'],,,,,NK,1,2024-10-04_11h28.09.880,V3,2024.1.5,2024-10-04 11h28.32.152801 +0530
179,0,179,0,333.129889,,,,,,,,,333.1034735,5,333.129889,333.129889,0.016006375,334.5994743,[-0.29],[0.24555555555555555],[1],[0],[0],[1.4806920000119135],['target'],,,,,NK,1,2024-10-04_11h28.09.880,V3,2024.1.5,2024-10-04 11h28.32.152801 +0530
180,0,180,0,334.646546,,,,,,,,,334.6035415,10,334.646546,334.646546,0.028616208,337.3821816,[-0.23444444444444446],[-0.34444444444444444],[1],[0],[0],[2.7505955840460956],['target'],,,,,NK,1,2024-10-04_11h28.09.880,V3,2024.1.5,2024-10-04 11h28.32.152801 +0530
181,0,181,0,337.4114801,,,,,,,,,337.3862661,5,337.4114801,337.4114801,0.015181958,340.009673,[0.44],[0.17222222222222222],[1],[0],[0],[2.608789666905068],['target'],,,,,NK,1,2024-10-04_11h28.09.880,V3,2024.1.5,2024-10-04 11h28.32.152801 +0530
182,0,182,0,340.0568122,,,,,,,,,340.0137728,10,340.0568122,340.0568122,0.028510167,342.5697202,[-0.40444444444444444],[0.06],[1],[0],[0],[2.5280473330058157],['target'],,,,,NK,1,2024-10-04_11h28.09.880,V3,2024.1.5,2024-10-04 11h28.32.152801 +0530
183,0,183,0,342.5993464,,,,,,,,,342.5737792,5,342.5993464,342.5993464,0.015191541,343.861486,[-0.2811111111111111],[0.0811111111111111],[1],[0],[0],[1.2730457090074196],['target'],,,,,NK,1,2024-10-04_11h28.09.880,V3,2024.1.5,2024-10-04 11h28.32.152801 +0530
184,0,184,0,343.8930828,,,,,,,,,343.8660675,5,343.8930828,343.8930828,0.016083125,345.3500203,[0.4033333333333333],[-0.1],[1],[0],[0],[1.4685074579901993],['target'],,,,,NK,1,2024-10-04_11h28.09.880,V3,2024.1.5,2024-10-04 11h28.32.152801 +0530
185,0,185,0,345.3794444,,,,,,,,,345.3540653,5,345.3794444,345.3794444,0.014893583,349.1599658,[0.4077777777777778],[0.29555555555555557],[1],[0],[0],[3.79157891694922],['target'],,,,,NK,1,2024-10-04_11h28.09.880,V3,2024.1.5,2024-10-04 11h28.32.152801 +0530
186,0,186,0,349.2068617,,,,,,,,,349.164064,10,349.2068617,349.2068617,0.028781375,350.6462546,[-0.13333333333333333],[0.22777777777777777],[1],[0],[0],[1.4538888749666512],['target'],,,,,NK,1,2024-10-04_11h28.09.880,V3,2024.1.5,2024-10-04 11h28.32.152801 +0530
187,0,187,0,350.693548,,,,,,,,,350.6503422,10,350.693548,350.693548,0.028698542,352.2036193,[0.5],[0.4622222222222222],[1],[0],[0],[1.5251611659768969],['target'],,,,,NK,1,2024-10-04_11h28.09.880,V3,2024.1.5,2024-10-04 11h28.32.152801 +0530
188,0,188,0,352.2508425,,,,,,,,,352.207722,10,352.2508425,352.2508425,0.028495208,353.5536446,[-0.2111111111111111],[-0.12111111111111111],[1],[0],[0],[1.3179326249519363],['target'],,,,,NK,1,2024-10-04_11h28.09.880,V3,2024.1.5,2024-10-04 11h28.32.152801 +0530
189,0,189,0,353.5830025,,,,,,,,,353.5577156,5,353.5830025,353.5830025,0.015016458,355.4935755,[-0.005555555555555556],[0.37777777777777777],[1],[0],[0],[1.9214379999320954],['target'],,,,,NK,1,2024-10-04_11h28.09.880,V3,2024.1.5,2024-10-04 11h28.32.152801 +0530
190,0,190,0,355.523575,,,,,,,,,355.4976282,5,355.523575,355.523575,0.014891417,356.4598507,[0.10333333333333333],[0.23666666666666666],[1],[0],[0],[0.9479470830410719],[],,,,,NK,1,2024-10-04_11h28.09.880,V3,2024.1.5,2024-10-04 11h28.32.152801 +0530
191,0,191,0,356.4894104,,,,,,,,,356.4639613,5,356.4894104,356.4894104,0.014906833,359.7733343,[0.01888888888888889],[-0.4311111111111111],[1],[0],[0],[3.295098999980837],['target'],,,,,NK,1,2024-10-04_11h28.09.880,V3,2024.1.5,2024-10-04 11h28.32.152801 +0530
192,0,192,0,359.8072409,,,,,,,,,359.7773912,5,359.8072409,359.8072409,0.015600291,361.01012,[-0.10444444444444445],[0.2411111111111111],[1],[0],[0],[1.2177127919858322],['target'],,,,,NK,1,2024-10-04_11h28.09.880,V3,2024.1.5,2024-10-04 11h28.32.152801 +0530
193,0,193,0,361.0396925,,,,,,,,,361.0141795,5,361.0396925,361.0396925,0.014871042,363.1271727,[0.34],[-0.27111111111111114],[1],[0],[0],[2.098726916941814],['target'],,,,,NK,1,2024-10-04_11h28.09.880,V3,2024.1.5,2024-10-04 11h28.32.152801 +0530
194,0,194,0,363.174179,,,,,,,,,363.1312141,10,363.174179,363.174179,0.028450292,366.2158717,[0.41888888888888887],[0.2111111111111111],[1],[0],[0],[3.0567787090549245],['target'],,,,,NK,1,2024-10-04_11h28.09.880,V3,2024.1.5,2024-10-04 11h28.32.152801 +0530
195,0,195,0,366.2459547,,,,,,,,,366.2201548,5,366.2459547,366.2459547,0.015617375,369.0935553,[0.11555555555555555],[-0.3333333333333333],[1],[0],[0],[2.8584118749713525],['target'],,,,,NK,1,2024-10-04_11h28.09.880,V3,2024.1.5,2024-10-04 11h28.32.152801 +0530
196,0,196,0,369.1405911,,,,,,,,,369.097639,10,369.1405911,369.1405911,0.028600375,370.1797811,[0.21],[0.04],[1],[0],[0],[1.0541462920373306],['target'],,,,,NK,1,2024-10-04_11h28.09.880,V3,2024.1.5,2024-10-04 11h28.32.152801 +0530
197,0,197,0,370.2272647,,,,,,,,,370.183872,10,370.2272647,370.2272647,0.028723334,372.9005733,[0.26],[0.33111111111111113],[1],[0],[0],[2.688553624902852],['target'],,,,,NK,1,2024-10-04_11h28.09.880,V3,2024.1.5,2024-10-04 11h28.32.152801 +0530
198,0,198,0,372.9478515,,,,,,,,,372.9046263,10,372.9478515,372.9478515,0.028666333,373.9111216,[0.12666666666666668],[0.18888888888888888],[0],[0],[0],[0.9783883329946548],['target'],,,,,NK,1,2024-10-04_11h28.09.880,V3,2024.1.5,2024-10-04 11h28.32.152801 +0530
199,0,199,0,373.9399672,,,,,,,,,373.9151999,5,373.9399672,373.9399672,0.015146208,376.2272595,[-0.4777777777777778],[-0.34555555555555556],[1],[0],[0],[2.297471583005972],['target'],,,,,NK,1,2024-10-04_11h28.09.880,V3,2024.1.5,2024-10-04 11h28.32.152801 +0530
,,,,,,,,,,,,,,,,,,,,,,,,,,376.230469,376.244313,379.240164,379.230374,NK,1,2024-10-04_11h28.09.880,V3,2024.1.5,2024-10-04 11h28.32.152801 +0530