Stair.thisTrialN,Stair.stepSize,Stair.intensity,corrAns,tilt,key_resp.corr,Stair.response,key_resp.rt,tilt (pos for graph),,
,,,,,,,,,,
0,2,10,right,10,1,1,0.626030791,10,Threshold Value,4.5
1,2,8,left,-8,1,1,0.430237375,8,"(Last 5 reversals, positive values, levels need to change)",
2,2,6,left,-6,1,1,0.36311575,6,,
3,2,4,right,4,1,1,0.373838208,4,,
4,2,2,right,2,1,1,0.355361042,2,,
5,1,1,right,1,0,0,1.778756083,1,,
6,1,2,left,-2,1,1,0.556194292,2,,
7,1,2,left,-2,1,1,0.510465375,2,,
8,1,2,left,-2,1,1,0.446492208,2,,
9,1,1,left,-1,1,1,0.529887042,1,,
10,1,1,left,-1,1,1,0.396362334,1,,
11,1,1,left,-1,1,1,0.442340625,1,,
12,1,1,left,-1,1,1,0.4856145,1,,
13,1,1,right,1,1,1,0.729994875,1,,
14,1,1,right,1,1,1,0.518755292,1,,
15,1,1,left,-1,1,1,0.496678958,1,,
16,0.5,1,right,1,0,0,0.413256208,1,,
17,0.5,1.5,right,1.5,1,1,0.543250166,1.5,,
18,0.5,1.5,left,-1.5,0,0,0.652617125,1.5,,
19,0.5,2,right,2,1,1,0.911127458,2,,
20,0.5,2,right,2,1,1,1.815789292,2,,
21,0.5,2,left,-2,1,1,0.452716958,2,,
22,0.5,1.5,left,-1.5,1,1,0.437763667,1.5,,
23,0.5,1.5,right,1.5,0,0,0.463761541,1.5,,
24,0.5,2,right,2,1,1,0.415613416,2,,
25,0.5,2,left,-2,1,1,0.521274875,2,,
26,0.5,2,right,2,1,1,0.448215542,2,,
27,0.5,1.5,right,1.5,1,1,0.439616292,1.5,,
28,0.5,1.5,left,-1.5,0,0,0.453278958,1.5,,
29,0.5,2,left,-2,1,1,0.543322334,2,,
30,0.5,2,right,2,1,1,0.483595792,2,,
31,0.5,2,right,2,1,1,0.547966792,2,,
32,0.5,1.5,right,1.5,1,1,0.444849292,1.5,,
33,0.5,1.5,right,1.5,1,1,0.437368708,1.5,,
34,0.5,1.5,left,-1.5,1,1,0.457690791,1.5,,
35,0.5,1,right,1,1,1,0.479648583,1,,
36,0.5,1,left,-1,1,1,0.435864541,1,,
37,0.5,1,right,1,1,1,0.462210542,1,,
38,0.5,1,right,1,1,1,0.511433292,1,,
39,0.5,1,left,-1,0,0,0.532775,1,,
40,0.5,1.5,right,1.5,1,1,0.587675541,1.5,,
41,0.5,1.5,right,1.5,1,1,1.059411792,1.5,,
42,0.5,1.5,right,1.5,1,1,0.754567209,1.5,,
43,0.5,1,right,1,1,1,0.453549167,1,,
44,0.5,1,left,-1,1,1,0.513688625,1,,
45,0.5,1,right,1,1,1,0.402824125,1,,
46,0.5,1,left,-1,1,1,0.447178375,1,,
47,0.5,1,left,-1,0,0,0.468596667,1,,
48,0.5,1.5,right,1.5,1,1,0.482154375,1.5,,
49,0.5,1.5,right,1.5,1,1,0.43014075,1.5,,
50,0.5,1.5,right,1.5,1,1,0.352685459,1.5,,
51,0.5,1,right,1,1,1,0.403846167,1,,
52,0.5,1,left,-1,0,0,0.439937333,1,,
53,0.5,1.5,right,1.5,1,1,0.542175083,1.5,,
54,0.5,1.5,left,-1.5,0,0,0.4215275,1.5,,
55,0.5,2,left,-2,1,1,0.463999584,2,,
56,0.5,2,right,2,0,0,0.378275917,2,,
57,0.5,2.5,left,-2.5,1,1,0.426134125,2.5,,
58,0.5,2.5,left,-2.5,1,1,0.585608834,2.5,,
59,0.5,2.5,right,2.5,1,1,0.509155291,2.5,,
60,0.5,2,left,-2,1,1,0.552056084,2,,
61,0.5,2,right,2,1,1,0.622356333,2,,
62,0.5,2,left,-2,1,1,0.474380709,2,,
63,0.5,1.5,right,1.5,1,1,0.491063917,1.5,,
64,0.5,1.5,left,-1.5,1,1,0.654136958,1.5,,
65,0.5,1.5,right,1.5,1,1,0.539063542,1.5,,
66,0.5,1,left,-1,0,0,0.542530792,1,,
67,0.5,1.5,right,1.5,1,1,0.443721708,1.5,,
68,0.5,1.5,left,-1.5,0,0,0.453679417,1.5,,
69,0.5,2,left,-2,0,0,0.424756208,2,,
70,0.5,2.5,left,-2.5,0,0,0.535843375,2.5,,
71,0.5,3,right,3,1,1,0.51519375,3,,
72,0.5,3,right,3,0,0,0.426571958,3,,
73,0.5,3.5,left,-3.5,1,1,0.562843917,3.5,,
74,0.5,3.5,left,-3.5,0,0,0.538965959,3.5,,
75,0.5,4,left,-4,0,0,0.402272458,4,,
76,0.5,4.5,right,4.5,1,1,0.490100875,4.5,,
77,0.5,4.5,right,4.5,1,1,0.497091458,4.5,,
78,0.5,4.5,left,-4.5,0,0,0.719796667,4.5,,
79,0.5,5,right,5,1,1,0.560546125,5,,
80,0.5,5,right,5,1,1,0.509085333,5,,
81,0.5,5,left,-5,1,1,0.760641666,5,,
82,0.5,4.5,right,4.5,0,0,15.371075,4.5,,
83,0.5,5,left,-5,1,1,0.402070625,5,,
84,0.5,5,left,-5,1,1,0.355507959,5,,
85,0.5,5,left,-5,1,1,0.349239416,5,,
86,0.5,4.5,right,4.5,1,1,1.301705125,4.5,,
87,0.5,4.5,right,4.5,1,1,0.412898584,4.5,,
88,0.5,4.5,right,4.5,1,1,0.353395167,4.5,,
89,0.5,4,right,4,1,1,0.474351584,4,,
90,0.5,4,right,4,1,1,0.385429917,4,,
91,0.5,4,right,4,1,1,0.365345167,4,,
92,0.5,3.5,right,3.5,1,1,1.0359735,3.5,,
93,0.5,3.5,right,3.5,1,1,0.37323075,3.5,,
94,0.5,3.5,left,-3.5,0,0,0.414408833,3.5,,
95,0.5,4,right,4,1,1,0.387421458,4,,
96,0.5,4,right,4,1,1,0.398739292,4,,
97,0.5,4,left,-4,1,1,0.41237775,4,,
98,0.5,3.5,right,3.5,1,1,0.369153125,3.5,,
99,0.5,3.5,left,-3.5,1,1,0.974012042,3.5,,