Stair.thisTrialN,Stair.stepSize,Stair.intensity,corrAns,tilt,key_resp.corr,Stair.response,key_resp.rt,,,,,,
,,,,,,,,,,,,,
0,2,10,right,10,1,1,0.626030791,,Threshold Value,4.7,,Accuracy (%),80
1,2,8,left,-8,1,1,0.430237375,,"(Last 5 reversals, positive values, levels need to change)","4, 5, 5, 5, 4.5",,number of trials - inaccurate trials,"100 -COUNTIF(F3:F102, 0)"
2,2,6,left,-6,1,1,0.36311575,,,,,,
3,2,4,right,4,1,1,0.373838208,,,,,,
4,2,2,right,2,1,1,0.355361042,,,,,,
5,1,1,right,1,0,0,1.778756083,,,,,,
6,1,2,left,-2,1,1,0.556194292,,,,,,
7,1,2,left,-2,1,1,0.510465375,,,,,,
8,1,2,left,-2,1,1,0.446492208,,,,,,
9,1,1,left,-1,1,1,0.529887042,,,,,,
10,1,1,left,-1,1,1,0.396362334,,,,,,
11,1,1,left,-1,1,1,0.442340625,,,,,,
12,1,1,left,-1,1,1,0.4856145,,,,,,
13,1,1,right,1,1,1,0.729994875,,,,,,
14,1,1,right,1,1,1,0.518755292,,,,,,
15,1,1,left,-1,1,1,0.496678958,,,,,,
16,0.5,1,right,1,0,0,0.413256208,,,,,,
17,0.5,1.5,right,1.5,1,1,0.543250166,,,,,,
18,0.5,1.5,left,-1.5,0,0,0.652617125,,,,,,
19,0.5,2,right,2,1,1,0.911127458,,,,,,
20,0.5,2,right,2,1,1,1.815789292,,,,,,
21,0.5,2,left,-2,1,1,0.452716958,,,,,,
22,0.5,1.5,left,-1.5,1,1,0.437763667,,,,,,
23,0.5,1.5,right,1.5,0,0,0.463761541,,,,,,
24,0.5,2,right,2,1,1,0.415613416,,,,,,
25,0.5,2,left,-2,1,1,0.521274875,,,,,,
26,0.5,2,right,2,1,1,0.448215542,,,,,,
27,0.5,1.5,right,1.5,1,1,0.439616292,,,,,,
28,0.5,1.5,left,-1.5,0,0,0.453278958,,,,,,
29,0.5,2,left,-2,1,1,0.543322334,,,,,,
30,0.5,2,right,2,1,1,0.483595792,,,,,,
31,0.5,2,right,2,1,1,0.547966792,,,,,,
32,0.5,1.5,right,1.5,1,1,0.444849292,,,,,,
33,0.5,1.5,right,1.5,1,1,0.437368708,,,,,,
34,0.5,1.5,left,-1.5,1,1,0.457690791,,,,,,
35,0.5,1,right,1,1,1,0.479648583,,,,,,
36,0.5,1,left,-1,1,1,0.435864541,,,,,,
37,0.5,1,right,1,1,1,0.462210542,,,,,,
38,0.5,1,right,1,1,1,0.511433292,,,,,,
39,0.5,1,left,-1,0,0,0.532775,,,,,,
40,0.5,1.5,right,1.5,1,1,0.587675541,,,,,,
41,0.5,1.5,right,1.5,1,1,1.059411792,,,,,,
42,0.5,1.5,right,1.5,1,1,0.754567209,,,,,,
43,0.5,1,right,1,1,1,0.453549167,,,,,,
44,0.5,1,left,-1,1,1,0.513688625,,,,,,
45,0.5,1,right,1,1,1,0.402824125,,,,,,
46,0.5,1,left,-1,1,1,0.447178375,,,,,,
47,0.5,1,left,-1,0,0,0.468596667,,,,,,
48,0.5,1.5,right,1.5,1,1,0.482154375,,,,,,
49,0.5,1.5,right,1.5,1,1,0.43014075,,,,,,
50,0.5,1.5,right,1.5,1,1,0.352685459,,,,,,
51,0.5,1,right,1,1,1,0.403846167,,,,,,
52,0.5,1,left,-1,0,0,0.439937333,,,,,,
53,0.5,1.5,right,1.5,1,1,0.542175083,,,,,,
54,0.5,1.5,left,-1.5,0,0,0.4215275,,,,,,
55,0.5,2,left,-2,1,1,0.463999584,,,,,,
56,0.5,2,right,2,0,0,0.378275917,,,,,,
57,0.5,2.5,left,-2.5,1,1,0.426134125,,,,,,
58,0.5,2.5,left,-2.5,1,1,0.585608834,,,,,,
59,0.5,2.5,right,2.5,1,1,0.509155291,,,,,,
60,0.5,2,left,-2,1,1,0.552056084,,,,,,
61,0.5,2,right,2,1,1,0.622356333,,,,,,
62,0.5,2,left,-2,1,1,0.474380709,,,,,,
63,0.5,1.5,right,1.5,1,1,0.491063917,,,,,,
64,0.5,1.5,left,-1.5,1,1,0.654136958,,,,,,
65,0.5,1.5,right,1.5,1,1,0.539063542,,,,,,
66,0.5,1,left,-1,0,0,0.542530792,,,,,,
67,0.5,1.5,right,1.5,1,1,0.443721708,,,,,,
68,0.5,1.5,left,-1.5,0,0,0.453679417,,,,,,
69,0.5,2,left,-2,0,0,0.424756208,,,,,,
70,0.5,2.5,left,-2.5,0,0,0.535843375,,,,,,
71,0.5,3,right,3,1,1,0.51519375,,,,,,
72,0.5,3,right,3,0,0,0.426571958,,,,,,
73,0.5,3.5,left,-3.5,1,1,0.562843917,,,,,,
74,0.5,3.5,left,-3.5,0,0,0.538965959,,,,,,
75,0.5,4,left,-4,0,0,0.402272458,,,,,,
76,0.5,4.5,right,4.5,1,1,0.490100875,,,,,,
77,0.5,4.5,right,4.5,1,1,0.497091458,,,,,,
78,0.5,4.5,left,-4.5,0,0,0.719796667,,,,,,
79,0.5,5,right,5,1,1,0.560546125,,,,,,
80,0.5,5,right,5,1,1,0.509085333,,,,,,
81,0.5,5,left,-5,1,1,0.760641666,,,,,,
82,0.5,4.5,right,4.5,0,0,15.371075,,,,,,
83,0.5,5,left,-5,1,1,0.402070625,,,,,,
84,0.5,5,left,-5,1,1,0.355507959,,,,,,
85,0.5,5,left,-5,1,1,0.349239416,,,,,,
86,0.5,4.5,right,4.5,1,1,1.301705125,,,,,,
87,0.5,4.5,right,4.5,1,1,0.412898584,,,,,,
88,0.5,4.5,right,4.5,1,1,0.353395167,,,,,,
89,0.5,4,right,4,1,1,0.474351584,,,,,,
90,0.5,4,right,4,1,1,0.385429917,,,,,,
91,0.5,4,right,4,1,1,0.365345167,,,,,,
92,0.5,3.5,right,3.5,1,1,1.0359735,,,,,,
93,0.5,3.5,right,3.5,1,1,0.37323075,,,,,,
94,0.5,3.5,left,-3.5,0,0,0.414408833,,,,,,
95,0.5,4,right,4,1,1,0.387421458,,,,,,
96,0.5,4,right,4,1,1,0.398739292,,,,,,
97,0.5,4,left,-4,1,1,0.41237775,,,,,,
98,0.5,3.5,right,3.5,1,1,0.369153125,,,,,,
99,0.5,3.5,left,-3.5,1,1,0.974012042,,,,,,