image,type,duration,corr_ans,trials.thisRepN,trials.thisTrialN,trials.thisN,trials.thisIndex,trials_2.thisRepN,trials_2.thisTrialN,trials_2.thisN,trials_2.thisIndex,thisRow.t,notes,instructions.started,text.started,key_resp_2.started,instructions.stopped,key_resp_2.keys,key_resp_2.rt,key_resp_2.duration,original.started,fixation1.started,image1.started,fixation1.stopped,image1.stopped,original.stopped,instructions2.started,text_2.started,keyresp.started,instructions2.stopped,keyresp.keys,keyresp.rt,keyresp.duration,mixed.started,fixation2.started,key_resp.started,image_2.started,fixation2.stopped,image_2.stopped,mixed.stopped,key_resp.keys,key_resp.corr,key_resp.rt,key_resp.duration,thanks.started,text_3.started,thanks.stopped,participant,session,date,expName,psychopyVersion,frameRate,expStart,,,,,,,,,,,,,,0.013585417,0.057010375,0.057010375,3.311447167,space,3.243955,None,,,,,,,,,,,,,,,,,,,,,,,,,,,,AN,1,2024-11-29_20h07.20.837,soloproject,2024.1.5,None,2024-11-29 20h08.12.815958 +0530/Users/mac/Desktop/0_Solo/landscapebw5.jpg,bnw,0.533,,0,0,0,1,,,,,3.370807834,,,,,,,,,3.330586584,3.370807834,10.30783625,10.372977,10.85221562,10.82839142,,,,,,,,,,,,,,,,,,,,,,AN,1,2024-11-29_20h07.20.837,soloproject,2024.1.5,None,2024-11-29 20h08.12.815958 +0530/Users/mac/Desktop/0_Solo/mmbw5.jpg,bnw,0.2,,0,1,1,45,,,,,10.85221562,,,,,,,,,10.82918608,10.85221562,17.81700833,17.84300146,18.02083283,18.00032883,,,,,,,,,,,,,,,,,,,,,,AN,1,2024-11-29_20h07.20.837,soloproject,2024.1.5,None,2024-11-29 20h08.12.815958 +0530/Users/mac/Desktop/0_Solo/landscapec5.jpg,colour,0.4,,0,2,2,27,,,,,18.02083283,,,,,,,,,18.00076387,18.02083283,24.99354792,25.01639525,25.40205425,25.37852667,,,,,,,,,,,,,,,,,,,,,,AN,1,2024-11-29_20h07.20.837,soloproject,2024.1.5,None,2024-11-29 20h08.12.815958 +0530/Users/mac/Desktop/0_Solo/landscapebw2.jpg,bnw,0.8,,0,3,3,10,,,,,25.40205425,,,,,,,,,25.379608,25.40205425,32.37757087,32.39465792,33.30843637,33.160893,,,,,,,,,,,,,,,,,,,,,,AN,1,2024-11-29_20h07.20.837,soloproject,2024.1.5,None,2024-11-29 20h08.12.815958 +0530/Users/mac/Desktop/0_Solo/mmc1.jpg,colour,1.067,,0,4,4,13,,,,,33.30843637,,,,,,,,,33.16125571,33.30843637,40.15572917,40.30049408,41.26948721,41.21175292,,,,,,,,,,,,,,,,,,,,,,AN,1,2024-11-29_20h07.20.837,soloproject,2024.1.5,None,2024-11-29 20h08.12.815958 +0530/Users/mac/Desktop/0_Solo/flowerc2.jpg,colour,0.4,,0,5,5,4,,,,,41.26948721,,,,,,,,,41.21241883,41.26948721,48.20474446,48.26166158,48.66464742,48.59634687,,,,,,,,,,,,,,,,,,,,,,AN,1,2024-11-29_20h07.20.837,soloproject,2024.1.5,None,2024-11-29 20h08.12.815958 +0530/Users/mac/Desktop/0_Solo/flowerc5.jpg,colour,0.2,,0,6,6,11,,,,,48.66464742,,,,,,,,,48.59735517,48.66464742,55.59568863,55.66208429,55.80459425,55.77939383,,,,,,,,,,,,,,,,,,,,,,AN,1,2024-11-29_20h07.20.837,soloproject,2024.1.5,None,2024-11-29 20h08.12.815958 +0530/Users/mac/Desktop/0_Solo/rockbw6.jpg,bnw,0.4,,0,7,7,8,,,,,55.80459425,,,,,,,,,55.77994471,55.80459425,62.7697905,62.80127367,63.1750505,63.15295183,,,,,,,,,,,,,,,,,,,,,,AN,1,2024-11-29_20h07.20.837,soloproject,2024.1.5,None,2024-11-29 20h08.12.815958 +0530/Users/mac/Desktop/0_Solo/mmbw4.jpg,bnw,0.05,,0,8,8,17,,,,,63.1750505,,,,,,,,,63.15344042,63.1750505,70.14542025,70.16691012,70.24893279,70.17974283,,,,,,,,,,,,,,,,,,,,,,AN,1,2024-11-29_20h07.20.837,soloproject,2024.1.5,None,2024-11-29 20h08.12.815958 +0530/Users/mac/Desktop/0_Solo/rockc3.jpg,colour,1.067,,0,9,9,36,,,,,70.24893279,,,,,,,,,70.1802415,70.24893279,77.17177275,77.24630004,78.25526646,78.23014512,,,,,,,,,,,,,,,,,,,,,,AN,1,2024-11-29_20h07.20.837,soloproject,2024.1.5,None,2024-11-29 20h08.12.815958 +0530/Users/mac/Desktop/0_Solo/landscapec4.jpg,colour,0.4,,0,10,10,23,,,,,78.25526646,,,,,,,,,78.23074925,78.25526646,85.2200955,85.25186296,85.63343913,85.61392167,,,,,,,,,,,,,,,,,,,,,,AN,1,2024-11-29_20h07.20.837,soloproject,2024.1.5,None,2024-11-29 20h08.12.815958 +0530/Users/mac/Desktop/0_Solo/landscapec6.jpg,colour,1.067,,0,11,11,18,,,,,85.63343913,,,,,,,,,85.6145045,85.63343913,92.60392983,92.62997438,93.7290865,93.66487462,,,,,,,,,,,,,,,,,,,,,,AN,1,2024-11-29_20h07.20.837,soloproject,2024.1.5,None,2024-11-29 20h08.12.815958 +0530/Users/mac/Desktop/0_Solo/flowerbw6.jpg,bnw,0.2,,0,12,12,39,,,,,93.7290865,,,,,,,,,93.66555783,93.7290865,100.6624136,100.7186583,100.8798329,100.847413,,,,,,,,,,,,,,,,,,,,,,AN,1,2024-11-29_20h07.20.837,soloproject,2024.1.5,None,2024-11-29 20h08.12.815958 +0530/Users/mac/Desktop/0_Solo/rockc6.jpg,colour,1.067,,0,13,13,25,,,,,100.8798329,,,,,,,,,100.8479363,100.8798329,107.8391559,107.8691746,108.9711588,108.8977615,,,,,,,,,,,,,,,,,,,,,,AN,1,2024-11-29_20h07.20.837,soloproject,2024.1.5,None,2024-11-29 20h08.12.815958 +0530/Users/mac/Desktop/0_Solo/flowerc6.jpg,colour,0.8,,0,14,14,0,,,,,108.9711588,,,,,,,,,108.8988439,108.9711588,115.8894013,115.9640132,116.7051499,116.6813792,,,,,,,,,,,,,,,,,,,,,,AN,1,2024-11-29_20h07.20.837,soloproject,2024.1.5,None,2024-11-29 20h08.12.815958 +0530/Users/mac/Desktop/0_Solo/landscapebw1.jpg,bnw,0.8,,0,15,15,21,,,,,116.7051499,,,,,,,,,116.6818686,116.7051499,123.671208,123.6974892,124.4864294,124.4649794,,,,,,,,,,,,,,,,,,,,,,AN,1,2024-11-29_20h07.20.837,soloproject,2024.1.5,None,2024-11-29 20h08.12.815958 +0530/Users/mac/Desktop/0_Solo/rockc1.jpg,colour,0.8,,0,16,16,16,,,,,124.4864294,,,,,,,,,124.4656303,124.4864294,131.4565209,131.4811196,132.5092574,132.2484761,,,,,,,,,,,,,,,,,,,,,,AN,1,2024-11-29_20h07.20.837,soloproject,2024.1.5,None,2024-11-29 20h08.12.815958 +0530/Users/mac/Desktop/0_Solo/rockc2.jpg,colour,0.533,,0,17,17,31,,,,,132.5092574,,,,,,,,,132.2491779,132.5092574,139.2613157,139.5053563,139.8440165,139.7827711,,,,,,,,,,,,,,,,,,,,,,AN,1,2024-11-29_20h07.20.837,soloproject,2024.1.5,None,2024-11-29 20h08.12.815958 +0530/Users/mac/Desktop/0_Solo/rockbw1.jpg,bnw,0.4,,0,18,18,12,,,,,139.8440165,,,,,,,,,139.7834451,139.8440165,146.7808299,146.8370484,147.2064067,147.165355,,,,,,,,,,,,,,,,,,,,,,AN,1,2024-11-29_20h07.20.837,soloproject,2024.1.5,None,2024-11-29 20h08.12.815958 +0530/Users/mac/Desktop/0_Solo/landscapebw4.jpg,bnw,0.2,,0,19,19,14,,,,,147.2064067,,,,,,,,,147.1658644,147.2064067,154.1572741,154.2033882,154.424995,154.3487247,,,,,,,,,,,,,,,,,,,,,,AN,1,2024-11-29_20h07.20.837,soloproject,2024.1.5,None,2024-11-29 20h08.12.815958 +0530/Users/mac/Desktop/0_Solo/landscapec2.jpg,colour,0.4,,0,20,20,40,,,,,154.424995,,,,,,,,,154.3495069,154.424995,161.3442085,161.4204006,161.7594873,161.7328878,,,,,,,,,,,,,,,,,,,,,,AN,1,2024-11-29_20h07.20.837,soloproject,2024.1.5,None,2024-11-29 20h08.12.815958 +0530/Users/mac/Desktop/0_Solo/rockc4.jpg,colour,0.05,,0,21,21,2,,,,,161.7594873,,,,,,,,,161.7333883,161.7594873,168.7238129,168.7544104,168.7993237,168.7662846,,,,,,,,,,,,,,,,,,,,,,AN,1,2024-11-29_20h07.20.837,soloproject,2024.1.5,None,2024-11-29 20h08.12.815958 +0530/Users/mac/Desktop/0_Solo/flowerbw4.jpg,bnw,0.2,,0,22,22,5,,,,,168.7993237,,,,,,,,,168.7666824,168.7993237,175.7578805,175.7882053,175.9688162,175.9499528,,,,,,,,,,,,,,,,,,,,,,AN,1,2024-11-29_20h07.20.837,soloproject,2024.1.5,None,2024-11-29 20h08.12.815958 +0530/Users/mac/Desktop/0_Solo/flowerbw5.jpg,bnw,0.533,,0,23,23,22,,,,,175.9688162,,,,,,,,,175.9508093,175.9688162,182.9402561,182.9661864,183.5299839,183.456793,,,,,,,,,,,,,,,,,,,,,,AN,1,2024-11-29_20h07.20.837,soloproject,2024.1.5,None,2024-11-29 20h08.12.815958 +0530/Users/mac/Desktop/0_Solo/flowerc1.jpg,colour,0.8,,0,24,24,32,,,,,183.5299839,,,,,,,,,183.457314,183.5299839,190.4522917,190.5219547,191.3038149,191.2395396,,,,,,,,,,,,,,,,,,,,,,AN,1,2024-11-29_20h07.20.837,soloproject,2024.1.5,None,2024-11-29 20h08.12.815958 +0530/Users/mac/Desktop/0_Solo/flowerc4.jpg,colour,0.05,,0,25,25,28,,,,,191.3038149,,,,,,,,,191.2400325,191.3038149,198.2336715,198.3977596,198.2731778,198.2900027,,,,,,,,,,,,,,,,,,,,,,AN,1,2024-11-29_20h07.20.837,soloproject,2024.1.5,None,2024-11-29 20h08.12.815958 +0530/Users/mac/Desktop/0_Solo/rockc5.jpg,colour,0.2,,0,26,26,20,,,,,198.3977596,,,,,,,,,198.2905912,198.3977596,205.299079,205.3891835,205.5537318,205.4844587,,,,,,,,,,,,,,,,,,,,,,AN,1,2024-11-29_20h07.20.837,soloproject,2024.1.5,None,2024-11-29 20h08.12.815958 +0530/Users/mac/Desktop/0_Solo/flowerc3.jpg,colour,0.05,,0,27,27,35,,,,,205.5537318,,,,,,,,,205.4851855,205.5537318,212.4761492,212.5641353,212.5235059,212.5406521,,,,,,,,,,,,,,,,,,,,,,AN,1,2024-11-29_20h07.20.837,soloproject,2024.1.5,None,2024-11-29 20h08.12.815958 +0530/Users/mac/Desktop/0_Solo/rockbw2.jpg,bnw,0.8,,0,28,28,37,,,,,212.5641353,,,,,,,,,212.5410737,212.5641353,219.5330996,219.554833,220.3727721,220.3180425,,,,,,,,,,,,,,,,,,,,,,AN,1,2024-11-29_20h07.20.837,soloproject,2024.1.5,None,2024-11-29 20h08.12.815958 +0530/Users/mac/Desktop/0_Solo/rockbw3.jpg,bnw,1.067,,0,29,29,44,,,,,220.3727721,,,,,,,,,220.3185711,220.3727721,227.310207,227.367525,228.3945182,228.3682418,,,,,,,,,,,,,,,,,,,,,,AN,1,2024-11-29_20h07.20.837,soloproject,2024.1.5,None,2024-11-29 20h08.12.815958 +0530/Users/mac/Desktop/0_Solo/landscapebw3.jpg,bnw,0.533,,0,30,30,42,,,,,228.3945182,,,,,,,,,228.3695307,228.3945182,235.3589085,235.389825,235.9059111,235.8852032,,,,,,,,,,,,,,,,,,,,,,AN,1,2024-11-29_20h07.20.837,soloproject,2024.1.5,None,2024-11-29 20h08.12.815958 +0530/Users/mac/Desktop/0_Solo/mmbw2.jpg,bnw,0.05,,0,31,31,7,,,,,235.9059111,,,,,,,,,235.885718,235.9059111,242.8756805,242.9013983,242.9400133,242.9189264,,,,,,,,,,,,,,,,,,,,,,AN,1,2024-11-29_20h07.20.837,soloproject,2024.1.5,None,2024-11-29 20h08.12.815958 +0530/Users/mac/Desktop/0_Solo/rockbw5.jpg,bnw,0.05,,0,32,32,41,,,,,242.9400133,,,,,,,,,242.9193926,242.9400133,249.9100063,249.9350892,249.9728679,249.9523074,,,,,,,,,,,,,,,,,,,,,,AN,1,2024-11-29_20h07.20.837,soloproject,2024.1.5,None,2024-11-29 20h08.12.815958 +0530/Users/mac/Desktop/0_Solo/mmc5.jpg,colour,0.2,,0,33,33,34,,,,,249.9728679,,,,,,,,,249.9527712,249.9728679,256.9433003,256.9684589,257.1630749,257.1358516,,,,,,,,,,,,,,,,,,,,,,AN,1,2024-11-29_20h07.20.837,soloproject,2024.1.5,None,2024-11-29 20h08.12.815958 +0530/Users/mac/Desktop/0_Solo/mmc6.jpg,colour,1.067,,0,34,34,9,,,,,257.1630749,,,,,,,,,257.1372607,257.1630749,264.1351222,264.1570797,265.2641799,265.1862303,,,,,,,,,,,,,,,,,,,,,,AN,1,2024-11-29_20h07.20.837,soloproject,2024.1.5,None,2024-11-29 20h08.12.815958 +0530/Users/mac/Desktop/0_Solo/flowerbw3.jpg,bnw,0.4,,0,35,35,43,,,,,265.2641799,,,,,,,,,265.1868037,265.2641799,272.1791968,272.2580043,272.594857,272.5697008,,,,,,,,,,,,,,,,,,,,,,AN,1,2024-11-29_20h07.20.837,soloproject,2024.1.5,None,2024-11-29 20h08.12.815958 +0530/Users/mac/Desktop/0_Solo/mmc2.jpg,colour,0.8,,0,36,36,46,,,,,272.594857,,,,,,,,,272.5701805,272.594857,279.5605413,279.5914199,280.3637192,280.3436255,,,,,,,,,,,,,,,,,,,,,,AN,1,2024-11-29_20h07.20.837,soloproject,2024.1.5,None,2024-11-29 20h08.12.815958 +0530/Users/mac/Desktop/0_Solo/mmbw6.jpg,bnw,0.533,,0,37,37,24,,,,,280.3637192,,,,,,,,,280.3440173,280.3637192,287.344268,287.3567347,287.893264,287.8702843,,,,,,,,,,,,,,,,,,,,,,AN,1,2024-11-29_20h07.20.837,soloproject,2024.1.5,None,2024-11-29 20h08.12.815958 +0530/Users/mac/Desktop/0_Solo/mmbw1.jpg,bnw,0.4,,0,38,38,30,,,,,287.893264,,,,,,,,,287.870781,287.893264,294.8609427,294.8863413,295.2749301,295.2537499,,,,,,,,,,,,,,,,,,,,,,AN,1,2024-11-29_20h07.20.837,soloproject,2024.1.5,None,2024-11-29 20h08.12.815958 +0530/Users/mac/Desktop/0_Solo/landscapebw2.jpg,bnw,0.05,,0,39,39,47,,,,,295.2749301,,,,,,,,,295.2542426,295.2749301,302.2449615,302.269951,302.3375255,302.2871163,,,,,,,,,,,,,,,,,,,,,,AN,1,2024-11-29_20h07.20.837,soloproject,2024.1.5,None,2024-11-29 20h08.12.815958 +0530/Users/mac/Desktop/0_Solo/landscapec3.jpg,colour,0.533,,0,40,40,6,,,,,302.3375255,,,,,,,,,302.2876951,302.3375255,309.2807357,309.3369009,309.9686419,309.8036687,,,,,,,,,,,,,,,,,,,,,,AN,1,2024-11-29_20h07.20.837,soloproject,2024.1.5,None,2024-11-29 20h08.12.815958 +0530/Users/mac/Desktop/0_Solo/landscapec1.jpg,colour,1.067,,0,41,41,33,,,,,309.9686419,,,,,,,,,309.8041751,309.9686419,316.7975757,316.9584302,317.8860717,317.85437,,,,,,,,,,,,,,,,,,,,,,AN,1,2024-11-29_20h07.20.837,soloproject,2024.1.5,None,2024-11-29 20h08.12.815958 +0530/Users/mac/Desktop/0_Solo/mmc3.jpg,colour,1.067,,0,42,42,3,,,,,317.8860717,,,,,,,,,317.854887,317.8860717,324.8463837,324.8751708,325.9502105,325.9046038,,,,,,,,,,,,,,,,,,,,,,AN,1,2024-11-29_20h07.20.837,soloproject,2024.1.5,None,2024-11-29 20h08.12.815958 +0530/Users/mac/Desktop/0_Solo/rockbw4.jpg,bnw,0.8,,0,43,43,29,,,,,325.9502105,,,,,,,,,325.9059967,325.9502105,332.8954368,332.9423235,333.709708,333.6885211,,,,,,,,,,,,,,,,,,,,,,AN,1,2024-11-29_20h07.20.837,soloproject,2024.1.5,None,2024-11-29 20h08.12.815958 +0530/Users/mac/Desktop/0_Solo/landscapebw6.jpg,bnw,0.533,,0,44,44,38,,,,,333.709708,,,,,,,,,333.6889979,333.709708,340.686702,340.7045505,341.2260044,341.2052137,,,,,,,,,,,,,,,,,,,,,,AN,1,2024-11-29_20h07.20.837,soloproject,2024.1.5,None,2024-11-29 20h08.12.815958 +0530/Users/mac/Desktop/0_Solo/mmc4.jpg,colour,0.05,,0,45,45,19,,,,,341.2260044,,,,,,,,,341.2057089,341.2260044,348.1956427,348.2212633,348.2741306,348.2385053,,,,,,,,,,,,,,,,,,,,,,AN,1,2024-11-29_20h07.20.837,soloproject,2024.1.5,None,2024-11-29 20h08.12.815958 +0530/Users/mac/Desktop/0_Solo/flowerbw1.jpg,bnw,0.2,,0,46,46,26,,,,,348.2741306,,,,,,,,,348.2389878,348.2741306,355.2299599,355.2716093,355.4600368,355.4227787,,,,,,,,,,,,,,,,,,,,,,AN,1,2024-11-29_20h07.20.837,soloproject,2024.1.5,None,2024-11-29 20h08.12.815958 +0530/Users/mac/Desktop/0_Solo/flowerbw2.jpg,bnw,0.533,,0,47,47,15,,,,,355.4600368,,,,,,,,,355.4234064,355.4600368,362.4207666,362.4551929,362.9550039,362.9389227,,,,,,,,,,,,,,,,,,,,,,AN,1,2024-11-29_20h07.20.837,soloproject,2024.1.5,None,2024-11-29 20h08.12.815958 +0530,,,,,,,,,,,,,,,,,,,,,,,,,,,362.9392327,362.9550039,362.9550039,365.2605907,space,2.267907167,None,,,,,,,,,,,,,,,AN,1,2024-11-29_20h07.20.837,soloproject,2024.1.5,None,2024-11-29 20h08.12.815958 +0530/Users/mac/Desktop/0_Solo/landscapebw4.jpg,,0.4,y,,,,,0,0,0,3,365.451608,,,,,,,,,,,,,,,,,,,,,,365.3065989,365.451608,365.451608,372.2550574,372.4442015,372.642657,373.4630676,n,0,8.00868375,None,,,,AN,1,2024-11-29_20h07.20.837,soloproject,2024.1.5,None,2024-11-29 20h08.12.815958 +0530/Users/mac/Desktop/0_Solo/flowerbwn1.jpg,,0.533,n,,,,,0,1,1,54,373.4875001,,,,,,,,,,,,,,,,,,,,,,373.4647789,373.4875001,373.4875001,380.4622608,380.4771818,380.9889102,381.4748895,n,0,7.976456334,None,,,,AN,1,2024-11-29_20h07.20.837,soloproject,2024.1.5,None,2024-11-29 20h08.12.815958 +0530/Users/mac/Desktop/0_Solo/rockbw4.jpg,,1.067,y,,,,,0,2,2,51,381.5344502,,,,,,,,,,,,,,,,,,,,,,381.4758097,381.5344502,381.5344502,388.4720864,388.5277783,389.5288251,390.1750567,y,0,8.631987708,None,,,,AN,1,2024-11-29_20h07.20.837,soloproject,2024.1.5,None,2024-11-29 20h08.12.815958 +0530/Users/mac/Desktop/0_Solo/landscapebwn3.jpg,,0.533,n,,,,,0,3,3,48,390.2165118,,,,,,,,,,,,,,,,,,,,,,390.1759533,390.2165118,390.2165118,397.1722965,397.2115888,397.6943276,398.5817041,n,0,8.361474208,None,,,,AN,1,2024-11-29_20h07.20.837,soloproject,2024.1.5,None,2024-11-29 20h08.12.815958 +0530/Users/mac/Desktop/0_Solo/flowercn3.jpg,,0.05,n,,,,,0,4,4,73,398.675396,,,,,,,,,,,,,,,,,,,,,,398.582934,398.675396,398.675396,405.5822535,405.6729706,405.6291887,406.6993515,y,0,8.016487708,None,,,,AN,1,2024-11-29_20h07.20.837,soloproject,2024.1.5,None,2024-11-29 20h08.12.815958 +0530/Users/mac/Desktop/0_Solo/flowerbw6.jpg,,1.067,y,,,,,0,5,5,87,406.7641065,,,,,,,,,,,,,,,,,,,,,,406.7003015,406.7641065,406.7641065,413.6973965,413.76212,414.7634806,415.3086852,n,0,8.533174666,None,,,,AN,1,2024-11-29_20h07.20.837,soloproject,2024.1.5,None,2024-11-29 20h08.12.815958 +0530/Users/mac/Desktop/0_Solo/mmbwn3.jpg,,0.2,n,,,,,0,6,6,66,415.338132,,,,,,,,,,,,,,,,,,,,,,415.3097647,415.338132,415.338132,422.3065133,422.3290904,422.4961339,423.2435588,y,0,7.902640084,None,,,,AN,1,2024-11-29_20h07.20.837,soloproject,2024.1.5,None,2024-11-29 20h08.12.815958 +0530/Users/mac/Desktop/0_Solo/flowercn1.jpg,,0.8,n,,,,,0,7,7,71,423.2622006,,,,,,,,,,,,,,,,,,,,,,423.2449715,423.2622006,423.2622006,430.2399958,430.2570368,431.029207,431.2592615,n,0,7.9923575,None,,,,AN,1,2024-11-29_20h07.20.837,soloproject,2024.1.5,None,2024-11-29 20h08.12.815958 +0530/Users/mac/Desktop/0_Solo/flowerc1.jpg,,0.8,y,,,,,0,8,8,58,431.3331162,,,,,,,,,,,,,,,,,,,,,,431.2601105,431.3331162,431.3331162,438.2565265,438.3296744,439.0445341,439.8266559,y,0,8.485969208,None,,,,AN,1,2024-11-29_20h07.20.837,soloproject,2024.1.5,None,2024-11-29 20h08.12.815958 +0530/Users/mac/Desktop/0_Solo/mmcn4.jpg,,1.067,n,,,,,0,9,9,28,439.8541708,,,,,,,,,,,,,,,,,,,,,,439.8278201,439.8541708,439.8541708,446.8238167,446.8452994,447.8802165,447.978583,y,0,8.12140625,None,,,,AN,1,2024-11-29_20h07.20.837,soloproject,2024.1.5,None,2024-11-29 20h08.12.815958 +0530/Users/mac/Desktop/0_Solo/landscapebw2.jpg,,0.4,y,,,,,0,10,10,19,448.0033327,,,,,,,,,,,,,,,,,,,,,,447.9798613,448.0033327,448.0033327,454.9736318,454.996094,455.3640365,457.4604943,y,0,9.448476958,None,,,,AN,1,2024-11-29_20h07.20.837,soloproject,2024.1.5,None,2024-11-29 20h08.12.815958 +0530/Users/mac/Desktop/0_Solo/flowerbwn5.jpg,,0.4,n,,,,,0,11,11,44,457.4794767,,,,,,,,,,,,,,,,,,,,,,457.4615875,457.4794767,457.4794767,464.4577552,464.4750713,464.8470839,467.3611724,n,0,9.878871666,None,,,,AN,1,2024-11-29_20h07.20.837,soloproject,2024.1.5,None,2024-11-29 20h08.12.815958 +0530/Users/mac/Desktop/0_Solo/landscapecn4.jpg,,0.533,n,,,,,0,12,12,41,467.3865149,,,,,,,,,,,,,,,,,,,,,,467.362423,467.3865149,467.3865149,474.35804,474.3799254,474.8809882,475.8774286,y,0,8.479504625,None,,,,AN,1,2024-11-29_20h07.20.837,soloproject,2024.1.5,None,2024-11-29 20h08.12.815958 +0530/Users/mac/Desktop/0_Solo/rockbwn6.jpg,,0.8,n,,,,,0,13,13,16,475.9039642,,,,,,,,,,,,,,,,,,,,,,475.8785357,475.9039642,475.9039642,482.8743813,482.8976711,483.6641869,484.2840227,n,0,8.375655,None,,,,AN,1,2024-11-29_20h07.20.837,soloproject,2024.1.5,None,2024-11-29 20h08.12.815958 +0530/Users/mac/Desktop/0_Solo/landscapecn5.jpg,,1.067,n,,,,,0,14,14,61,484.307321,,,,,,,,,,,,,,,,,,,,,,484.2851188,484.307321,484.307321,491.28353,491.2970147,492.3477303,492.578661,n,0,8.261091417,None,,,,AN,1,2024-11-29_20h07.20.837,soloproject,2024.1.5,None,2024-11-29 20h08.12.815958 +0530/Users/mac/Desktop/0_Solo/mmc2.jpg,,0.4,y,,,,,0,15,15,55,492.6054296,,,,,,,,,,,,,,,,,,,,,,492.5798407,492.6054296,492.6054296,499.5753908,499.5980182,499.9649843,500.5525037,y,0,7.943810166,None,,,,AN,1,2024-11-29_20h07.20.837,soloproject,2024.1.5,None,2024-11-29 20h08.12.815958 +0530/Users/mac/Desktop/0_Solo/rockbw1.jpg,,0.05,y,,,,,0,16,16,42,500.5987952,,,,,,,,,,,,,,,,,,,,,,500.5536435,500.5987952,500.5987952,507.5516047,507.5927854,507.5979238,509.317924,n,0,8.715219083,None,,,,AN,1,2024-11-29_20h07.20.837,soloproject,2024.1.5,None,2024-11-29 20h08.12.815958 +0530/Users/mac/Desktop/0_Solo/mmbw4.jpg,,0.2,y,,,,,0,17,17,32,509.3452273,,,,,,,,,,,,,,,,,,,,,,509.3194148,509.3452273,509.3452273,516.3175681,516.3427845,516.5154551,518.3018816,n,0,8.954142917,None,,,,AN,1,2024-11-29_20h07.20.837,soloproject,2024.1.5,None,2024-11-29 20h08.12.815958 +0530/Users/mac/Desktop/0_Solo/mmbwn1.jpg,,0.2,n,,,,,0,18,18,14,518.3259714,,,,,,,,,,,,,,,,,,,,,,518.3027677,518.3259714,518.3259714,525.3006083,525.3142724,525.4988989,526.3932865,y,0,8.052104667,None,,,,AN,1,2024-11-29_20h07.20.837,soloproject,2024.1.5,None,2024-11-29 20h08.12.815958 +0530/Users/mac/Desktop/0_Solo/rockcn6.jpg,,0.8,n,,,,,0,19,19,74,526.4068978,,,,,,,,,,,,,,,,,,,,,,526.3943153,526.4068978,526.4068978,,,,531.3128933,y,0,4.900775958,None,,,,AN,1,2024-11-29_20h07.20.837,soloproject,2024.1.5,None,2024-11-29 20h08.12.815958 +0530/Users/mac/Desktop/0_Solo/mmbwn5.jpg,,0.8,n,,,,,0,20,20,37,531.338173,,,,,,,,,,,,,,,,,,,,,,531.3145087,531.338173,531.338173,538.3095627,538.3326959,539.0992297,539.7143974,n,0,8.373264625,None,,,,AN,1,2024-11-29_20h07.20.837,soloproject,2024.1.5,None,2024-11-29 20h08.12.815958 +0530/Users/mac/Desktop/0_Solo/rockbwn1.jpg,,0.533,n,,,,,0,21,21,35,539.7393506,,,,,,,,,,,,,,,,,,,,,,539.7153033,539.7393506,539.7393506,546.7096729,546.7319535,547.2328385,548.7144447,y,0,8.967768459,None,,,,AN,1,2024-11-29_20h07.20.837,soloproject,2024.1.5,None,2024-11-29 20h08.12.815958 +0530/Users/mac/Desktop/0_Solo/rockcn2.jpg,,1.067,n,,,,,0,22,22,40,548.743376,,,,,,,,,,,,,,,,,,,,,,548.716407,548.743376,548.743376,,,,554.6190723,y,0,5.872940542,None,,,,AN,1,2024-11-29_20h07.20.837,soloproject,2024.1.5,None,2024-11-29 20h08.12.815958 +0530/Users/mac/Desktop/0_Solo/flowerbw1.jpg,,0.533,y,,,,,0,23,23,72,554.6582423,,,,,,,,,,,,,,,,,,,,,,554.6198515,554.6582423,554.6582423,,,,556.7291964,y,0,2.06675675,None,,,,AN,1,2024-11-29_20h07.20.837,soloproject,2024.1.5,None,2024-11-29 20h08.12.815958 +0530/Users/mac/Desktop/0_Solo/rockcn5.jpg,,0.05,n,,,,,0,24,24,0,556.748703,,,,,,,,,,,,,,,,,,,,,,556.7298916,556.748703,556.748703,563.726968,563.7444961,563.7653775,565.236675,y,0,8.484730167,None,,,,AN,1,2024-11-29_20h07.20.837,soloproject,2024.1.5,None,2024-11-29 20h08.12.815958 +0530/Users/mac/Desktop/0_Solo/landscapec1.jpg,,0.8,y,,,,,0,25,25,86,565.3966337,,,,,,,,,,,,,,,,,,,,,,565.2379153,565.3966337,565.3966337,572.246563,572.3949639,573.0449961,574.9155772,n,0,9.506896375,None,,,,AN,1,2024-11-29_20h07.20.837,soloproject,2024.1.5,None,2024-11-29 20h08.12.815958 +0530/Users/mac/Desktop/0_Solo/flowerbw4.jpg,,0.8,y,,,,,0,26,26,23,574.965723,,,,,,,,,,,,,,,,,,,,,,574.9166121,574.965723,574.965723,581.9112993,581.9617136,582.6991451,583.629337,y,0,8.65299075,None,,,,AN,1,2024-11-29_20h07.20.837,soloproject,2024.1.5,None,2024-11-29 20h08.12.815958 +0530/Users/mac/Desktop/0_Solo/mmbw1.jpg,,0.533,y,,,,,0,27,27,6,583.6435297,,,,,,,,,,,,,,,,,,,,,,583.629757,583.6435297,583.6435297,,,,586.5479025,y,0,2.89243525,None,,,,AN,1,2024-11-29_20h07.20.837,soloproject,2024.1.5,None,2024-11-29 20h08.12.815958 +0530/Users/mac/Desktop/0_Solo/flowerc2.jpg,,1.067,y,,,,,0,28,28,76,586.5934899,,,,,,,,,,,,,,,,,,,,,,586.5499057,586.5934899,586.5934899,,,,589.0530899,y,0,2.452481292,None,,,,AN,1,2024-11-29_20h07.20.837,soloproject,2024.1.5,None,2024-11-29 20h08.12.815958 +0530/Users/mac/Desktop/0_Solo/landscapebw3.jpg,,0.8,y,,,,,0,29,29,82,589.0741263,,,,,,,,,,,,,,,,,,,,,,589.0537963,589.0741263,589.0741263,,,,591.7699548,y,0,2.691280958,None,,,,AN,1,2024-11-29_20h07.20.837,soloproject,2024.1.5,None,2024-11-29 20h08.12.815958 +0530/Users/mac/Desktop/0_Solo/rockc1.jpg,,0.8,y,,,,,0,30,30,47,591.7927247,,,,,,,,,,,,,,,,,,,,,,591.7707594,591.7927247,591.7927247,598.7705902,598.7837792,599.5684538,601.9031629,n,0,10.10515967,None,,,,AN,1,2024-11-29_20h07.20.837,soloproject,2024.1.5,None,2024-11-29 20h08.12.815958 +0530/Users/mac/Desktop/0_Solo/mmc6.jpg,,0.533,y,,,,,0,31,31,27,601.9290562,,,,,,,,,,,,,,,,,,,,,,601.90403,601.9290562,601.9290562,,,,602.0635424,y,0,0.129877334,None,,,,AN,1,2024-11-29_20h07.20.837,soloproject,2024.1.5,None,2024-11-29 20h08.12.815958 +0530/Users/mac/Desktop/0_Solo/mmbwn2.jpg,,0.05,n,,,,,0,32,32,18,602.079066,,,,,,,,,,,,,,,,,,,,,,602.0642271,602.079066,602.079066,609.0621607,609.06828,609.1006297,610.4703709,n,0,8.384907875,None,,,,AN,1,2024-11-29_20h07.20.837,soloproject,2024.1.5,None,2024-11-29 20h08.12.815958 +0530/Users/mac/Desktop/0_Solo/flowercn5.jpg,,1.067,n,,,,,0,33,33,21,610.4939081,,,,,,,,,,,,,,,,,,,,,,610.4714464,610.4939081,610.4939081,617.4711267,617.4842065,618.5350084,619.0872591,n,0,8.590542583,None,,,,AN,1,2024-11-29_20h07.20.837,soloproject,2024.1.5,None,2024-11-29 20h08.12.815958 +0530/Users/mac/Desktop/0_Solo/rockbw2.jpg,,0.8,y,,,,,0,34,34,91,619.11296,,,,,,,,,,,,,,,,,,,,,,619.0882451,619.11296,619.11296,626.0875722,626.1132547,626.8851068,627.8586384,y,0,8.734184834,None,,,,AN,1,2024-11-29_20h07.20.837,soloproject,2024.1.5,None,2024-11-29 20h08.12.815958 +0530/Users/mac/Desktop/0_Solo/flowerbwn2.jpg,,0.05,n,,,,,0,35,35,50,627.8716505,,,,,,,,,,,,,,,,,,,,,,627.8595036,627.8716505,627.8716505,,,,629.3550278,y,0,1.478947375,None,,,,AN,1,2024-11-29_20h07.20.837,soloproject,2024.1.5,None,2024-11-29 20h08.12.815958 +0530/Users/mac/Desktop/0_Solo/landscapebwn4.jpg,,0.4,n,,,,,0,36,36,11,629.3958403,,,,,,,,,,,,,,,,,,,,,,629.3558354,629.3958403,629.3958403,636.354952,636.3858634,636.751604,637.4157944,n,0,8.015268625,None,,,,AN,1,2024-11-29_20h07.20.837,soloproject,2024.1.5,None,2024-11-29 20h08.12.815958 +0530/Users/mac/Desktop/0_Solo/rockbw5.jpg,,0.533,y,,,,,0,37,37,68,637.443782,,,,,,,,,,,,,,,,,,,,,,637.4166505,637.443782,637.443782,,,,639.7810635,y,0,2.332638041,None,,,,AN,1,2024-11-29_20h07.20.837,soloproject,2024.1.5,None,2024-11-29 20h08.12.815958 +0530/Users/mac/Desktop/0_Solo/landscapec4.jpg,,0.533,y,,,,,0,38,38,79,639.802797,,,,,,,,,,,,,,,,,,,,,,639.7818934,639.802797,639.802797,646.7800327,646.7972613,647.3025015,648.9333447,n,0,9.122976209,None,,,,AN,1,2024-11-29_20h07.20.837,soloproject,2024.1.5,None,2024-11-29 20h08.12.815958 +0530/Users/mac/Desktop/0_Solo/flowerc4.jpg,,1.067,y,,,,,0,39,39,90,649.0063441,,,,,,,,,,,,,,,,,,,,,,648.9345195,649.0063441,649.0063441,655.9293676,656.0031342,656.9849606,657.8171437,n,0,8.804741625,None,,,,AN,1,2024-11-29_20h07.20.837,soloproject,2024.1.5,None,2024-11-29 20h08.12.815958 +0530/Users/mac/Desktop/0_Solo/flowerc3.jpg,,1.067,y,,,,,0,40,40,1,657.8881214,,,,,,,,,,,,,,,,,,,,,,657.8183795,657.8881214,657.8881214,664.8138641,664.8809905,665.870508,666.5825169,y,0,8.683112792,None,,,,AN,1,2024-11-29_20h07.20.837,soloproject,2024.1.5,None,2024-11-29 20h08.12.815958 +0530/Users/mac/Desktop/0_Solo/mmbw6.jpg,,0.4,y,,,,,0,41,41,38,666.6076551,,,,,,,,,,,,,,,,,,,,,,666.5834279,666.6076551,666.6076551,673.5808487,673.6029146,673.9694292,675.1013246,y,0,8.490945709,None,,,,AN,1,2024-11-29_20h07.20.837,soloproject,2024.1.5,None,2024-11-29 20h08.12.815958 +0530/Users/mac/Desktop/0_Solo/landscapebwn2.jpg,,1.067,n,,,,,0,42,42,43,675.1253464,,,,,,,,,,,,,,,,,,,,,,675.1024044,675.1253464,675.1253464,682.0979267,682.1194855,683.1534051,684.2387906,n,0,9.108453416,None,,,,AN,1,2024-11-29_20h07.20.837,soloproject,2024.1.5,None,2024-11-29 20h08.12.815958 +0530/Users/mac/Desktop/0_Solo/mmcn6.jpg,,0.05,n,,,,,0,43,43,88,684.262007,,,,,,,,,,,,,,,,,,,,,,684.2396426,684.262007,684.262007,,,,691.1389066,y,0,6.873567917,None,,,,AN,1,2024-11-29_20h07.20.837,soloproject,2024.1.5,None,2024-11-29 20h08.12.815958 +0530/Users/mac/Desktop/0_Solo/flowerbw5.jpg,,0.4,y,,,,,0,44,44,12,691.1567089,,,,,,,,,,,,,,,,,,,,,,691.1395772,691.1567089,691.1567089,698.139728,698.1509363,,698.2336857,y,0,7.071250875,None,,,,AN,1,2024-11-29_20h07.20.837,soloproject,2024.1.5,None,2024-11-29 20h08.12.815958 +0530/Users/mac/Desktop/0_Solo/rockc5.jpg,,1.067,y,,,,,0,45,45,33,698.3208174,,,,,,,,,,,,,,,,,,,,,,698.2345597,698.3208174,698.3208174,705.2314506,705.3155925,706.2865978,706.6075822,y,0,8.280541042,None,,,,AN,1,2024-11-29_20h07.20.837,soloproject,2024.1.5,None,2024-11-29 20h08.12.815958 +0530/Users/mac/Desktop/0_Solo/landscapec3.jpg,,0.8,y,,,,,0,46,46,24,706.666429,,,,,,,,,,,,,,,,,,,,,,706.6093134,706.666429,706.666429,713.6068692,713.65453,714.4050413,714.8921675,y,0,8.223082666,None,,,,AN,1,2024-11-29_20h07.20.837,soloproject,2024.1.5,None,2024-11-29 20h08.12.815958 +0530/Users/mac/Desktop/0_Solo/mmc1.jpg,,1.067,y,,,,,0,47,47,81,715.065052,,,,,,,,,,,,,,,,,,,,,,714.8931137,715.065052,715.065052,721.8983777,722.0545987,722.9551264,724.9096552,n,0,9.8368515,None,,,,AN,1,2024-11-29_20h07.20.837,soloproject,2024.1.5,None,2024-11-29 20h08.12.815958 +0530/Users/mac/Desktop/0_Solo/flowerbw3.jpg,,0.05,y,,,,,0,48,48,70,724.978436,,,,,,,,,,,,,,,,,,,,,,724.9107582,724.978436,724.978436,,,,725.4781727,y,0,0.488291375,None,,,,AN,1,2024-11-29_20h07.20.837,soloproject,2024.1.5,None,2024-11-29 20h08.12.815958 +0530/Users/mac/Desktop/0_Solo/flowercn6.jpg,,0.8,n,,,,,0,49,49,49,725.4988861,,,,,,,,,,,,,,,,,,,,,,725.4788637,725.4988861,725.4988861,732.4754334,732.487812,733.2722875,733.4526541,y,0,7.946252,None,,,,AN,1,2024-11-29_20h07.20.837,soloproject,2024.1.5,None,2024-11-29 20h08.12.815958 +0530/Users/mac/Desktop/0_Solo/flowerc5.jpg,,0.2,y,,,,,0,50,50,83,733.5316211,,,,,,,,,,,,,,,,,,,,,,733.4538643,733.5316211,733.5316211,740.4489455,740.5218684,740.6388431,741.5689958,y,0,8.026159958,None,,,,AN,1,2024-11-29_20h07.20.837,soloproject,2024.1.5,None,2024-11-29 20h08.12.815958 +0530/Users/mac/Desktop/0_Solo/mmbw5.jpg,,0.533,y,,,,,0,51,51,92,741.5979203,,,,,,,,,,,,,,,,,,,,,,741.5702765,741.5979203,741.5979203,748.5664569,748.5889972,749.0892085,749.612868,n,0,8.003209916,None,,,,AN,1,2024-11-29_20h07.20.837,soloproject,2024.1.5,None,2024-11-29 20h08.12.815958 +0530/Users/mac/Desktop/0_Solo/landscapec6.jpg,,0.2,y,,,,,0,52,52,36,749.6325892,,,,,,,,,,,,,,,,,,,,,,749.6137342,749.6325892,749.6325892,756.6078743,756.6218695,756.8061079,757.7694042,y,0,8.125892792,None,,,,AN,1,2024-11-29_20h07.20.837,soloproject,2024.1.5,None,2024-11-29 20h08.12.815958 +0530/Users/mac/Desktop/0_Solo/rockcn3.jpg,,0.2,n,,,,,0,53,53,59,757.7933784,,,,,,,,,,,,,,,,,,,,,,757.7704613,757.7933784,757.7933784,764.7665059,764.7893249,764.9559997,766.2383242,y,0,8.441421125,None,,,,AN,1,2024-11-29_20h07.20.837,soloproject,2024.1.5,None,2024-11-29 20h08.12.815958 +0530/Users/mac/Desktop/0_Solo/landscapebw1.jpg,,0.4,y,,,,,0,54,54,31,766.2641124,,,,,,,,,,,,,,,,,,,,,,766.2395083,766.2641124,766.2641124,773.2338823,773.2556434,773.6235118,775.3097399,n,0,9.041108959,None,,,,AN,1,2024-11-29_20h07.20.837,soloproject,2024.1.5,None,2024-11-29 20h08.12.815958 +0530/Users/mac/Desktop/0_Solo/flowercn2.jpg,,1.067,n,,,,,0,55,55,15,775.3589287,,,,,,,,,,,,,,,,,,,,,,775.3105893,775.3589287,775.3589287,782.3091049,782.3565331,,783.045147,y,0,7.682810417,None,,,,AN,1,2024-11-29_20h07.20.837,soloproject,2024.1.5,None,2024-11-29 20h08.12.815958 +0530/Users/mac/Desktop/0_Solo/mmcn5.jpg,,0.4,n,,,,,0,56,56,52,783.0732611,,,,,,,,,,,,,,,,,,,,,,783.0462792,783.0732611,783.0732611,790.0427934,790.0683395,790.4401869,791.33868,y,0,8.262374959,None,,,,AN,1,2024-11-29_20h07.20.837,soloproject,2024.1.5,None,2024-11-29 20h08.12.815958 +0530/Users/mac/Desktop/0_Solo/flowerc6.jpg,,0.05,y,,,,,0,57,57,26,791.4091317,,,,,,,,,,,,,,,,,,,,,,791.3397904,791.4091317,791.4091317,798.3338799,798.4071362,798.3743663,799.2710147,y,0,7.855381459,None,,,,AN,1,2024-11-29_20h07.20.837,soloproject,2024.1.5,None,2024-11-29 20h08.12.815958 +0530/Users/mac/Desktop/0_Solo/mmcn1.jpg,,0.05,n,,,,,0,58,58,13,799.3015155,,,,,,,,,,,,,,,,,,,,,,799.27209,799.3015155,799.3015155,806.2678474,806.2911625,806.3064327,806.9548793,y,0,7.648153208,None,,,,AN,1,2024-11-29_20h07.20.837,soloproject,2024.1.5,None,2024-11-29 20h08.12.815958 +0530/Users/mac/Desktop/0_Solo/landscapec5.jpg,,0.4,y,,,,,0,59,59,89,806.9798624,,,,,,,,,,,,,,,,,,,,,,806.9560221,806.9798624,806.9798624,813.9512461,813.9745103,814.341042,815.0436058,y,0,8.056735583,None,,,,AN,1,2024-11-29_20h07.20.837,soloproject,2024.1.5,None,2024-11-29 20h08.12.815958 +0530/Users/mac/Desktop/0_Solo/rockcn4.jpg,,0.533,n,,,,,0,60,60,2,815.0759933,,,,,,,,,,,,,,,,,,,,,,815.045374,815.0759933,815.0759933,822.0438585,822.0692584,822.57436,823.1104905,n,0,8.029586542,None,,,,AN,1,2024-11-29_20h07.20.837,soloproject,2024.1.5,None,2024-11-29 20h08.12.815958 +0530/Users/mac/Desktop/0_Solo/landscapebwn5.jpg,,1.067,n,,,,,0,61,61,9,823.1571736,,,,,,,,,,,,,,,,,,,,,,823.1115594,823.1571736,823.1571736,830.1116408,830.1528909,831.1743901,832.2109757,y,0,9.04687075,None,,,,AN,1,2024-11-29_20h07.20.837,soloproject,2024.1.5,None,2024-11-29 20h08.12.815958 +0530/Users/mac/Desktop/0_Solo/mmbwn6.jpg,,0.05,n,,,,,0,62,62,93,832.2477972,,,,,,,,,,,,,,,,,,,,,,832.2130834,832.2477972,832.2477972,839.2112938,839.2531752,839.2584359,840.3061092,n,0,8.048624916,None,,,,AN,1,2024-11-29_20h07.20.837,soloproject,2024.1.5,None,2024-11-29 20h08.12.815958 +0530/Users/mac/Desktop/0_Solo/landscapecn1.jpg,,0.8,n,,,,,0,63,63,30,840.3800287,,,,,,,,,,,,,,,,,,,,,,840.3069529,840.3800287,840.3800287,847.3033991,847.3755098,848.091835,848.7888965,n,0,8.397719208,None,,,,AN,1,2024-11-29_20h07.20.837,soloproject,2024.1.5,None,2024-11-29 20h08.12.815958 +0530/Users/mac/Desktop/0_Solo/flowerbwn4.jpg,,0.2,n,,,,,0,64,64,84,848.8149025,,,,,,,,,,,,,,,,,,,,,,848.7900241,848.8149025,848.8149025,855.7863179,855.808921,855.9748995,858.5304613,y,0,9.706399292,None,,,,AN,1,2024-11-29_20h07.20.837,soloproject,2024.1.5,None,2024-11-29 20h08.12.815958 +0530/Users/mac/Desktop/0_Solo/flowercn4.jpg,,0.8,n,,,,,0,65,65,64,858.5580799,,,,,,,,,,,,,,,,,,,,,,858.5315936,858.5580799,858.5580799,865.5288309,865.5540283,866.3262903,868.2573592,y,0,9.696386417,None,,,,AN,1,2024-11-29_20h07.20.837,soloproject,2024.1.5,None,2024-11-29 20h08.12.815958 +0530/Users/mac/Desktop/0_Solo/rockc3.jpg,,0.8,y,,,,,0,66,66,5,868.3365956,,,,,,,,,,,,,,,,,,,,,,868.2583304,868.3365956,868.3365956,875.2525748,875.3261225,876.0417515,876.7297792,y,0,8.386147041,None,,,,AN,1,2024-11-29_20h07.20.837,soloproject,2024.1.5,None,2024-11-29 20h08.12.815958 +0530/Users/mac/Desktop/0_Solo/rockc6.jpg,,0.4,y,,,,,0,67,67,67,876.7683013,,,,,,,,,,,,,,,,,,,,,,876.7310359,876.7683013,876.7683013,883.7290757,883.7602513,884.1271679,887.5416722,y,0,10.76510617,None,,,,AN,1,2024-11-29_20h07.20.837,soloproject,2024.1.5,None,2024-11-29 20h08.12.815958 +0530/Users/mac/Desktop/0_Solo/mmc3.jpg,,1.067,y,,,,,0,68,68,56,887.5731597,,,,,,,,,,,,,,,,,,,,,,887.5433363,887.5731597,887.5731597,894.5370692,894.5714935,895.5940057,895.8910691,y,0,8.304653,None,,,,AN,1,2024-11-29_20h07.20.837,soloproject,2024.1.5,None,2024-11-29 20h08.12.815958 +0530/Users/mac/Desktop/0_Solo/rockbwn5.jpg,,0.2,n,,,,,0,69,69,63,895.917909,,,,,,,,,,,,,,,,,,,,,,895.8926123,895.917909,895.917909,902.887187,902.9105285,903.0771418,904.2295964,n,0,8.305152083,None,,,,AN,1,2024-11-29_20h07.20.837,soloproject,2024.1.5,None,2024-11-29 20h08.12.815958 +0530/Users/mac/Desktop/0_Solo/flowerbwn3.jpg,,0.2,n,,,,,0,70,70,4,904.3067486,,,,,,,,,,,,,,,,,,,,,,904.2308023,904.3067486,904.3067486,911.2324021,911.3050152,911.4266247,913.0591265,y,0,8.741216375,None,,,,AN,1,2024-11-29_20h07.20.837,soloproject,2024.1.5,None,2024-11-29 20h08.12.815958 +0530/Users/mac/Desktop/0_Solo/mmbw2.jpg,,0.2,y,,,,,0,71,71,7,913.0943456,,,,,,,,,,,,,,,,,,,,,,913.0608877,913.0943456,913.0943456,920.055002,920.0889541,920.2442858,923.3582432,n,0,10.25863913,None,,,,AN,1,2024-11-29_20h07.20.837,soloproject,2024.1.5,None,2024-11-29 20h08.12.815958 +0530/Users/mac/Desktop/0_Solo/landscapebwn1.jpg,,0.05,n,,,,,0,72,72,10,923.4004203,,,,,,,,,,,,,,,,,,,,,,923.3593876,923.4004203,923.4004203,930.3552374,930.3937659,930.3937659,931.2467655,y,0,7.839808209,None,,,,AN,1,2024-11-29_20h07.20.837,soloproject,2024.1.5,None,2024-11-29 20h08.12.815958 +0530/Users/mac/Desktop/0_Solo/flowerbwn6.jpg,,0.05,n,,,,,0,73,73,57,931.2773158,,,,,,,,,,,,,,,,,,,,,,931.248082,931.2773158,931.2773158,938.2469297,938.2726565,938.2947404,939.0966638,y,0,7.813256542,None,,,,AN,1,2024-11-29_20h07.20.837,soloproject,2024.1.5,None,2024-11-29 20h08.12.815958 +0530/Users/mac/Desktop/0_Solo/flowerbw2.jpg,,0.05,y,,,,,0,74,74,34,939.1390257,,,,,,,,,,,,,,,,,,,,,,939.0977117,939.1390257,939.1390257,946.0972243,946.1284711,946.143884,949.4758513,n,0,10.33132725,None,,,,AN,1,2024-11-29_20h07.20.837,soloproject,2024.1.5,None,2024-11-29 20h08.12.815958 +0530/Users/mac/Desktop/0_Solo/rockbwn4.jpg,,0.2,n,,,,,0,75,75,53,949.5028368,,,,,,,,,,,,,,,,,,,,,,949.4772745,949.5028368,949.5028368,956.4721752,956.4954049,956.6621615,957.2475532,y,0,7.739977583,None,,,,AN,1,2024-11-29_20h07.20.837,soloproject,2024.1.5,None,2024-11-29 20h08.12.815958 +0530/Users/mac/Desktop/0_Solo/landscapecn6.jpg,,1.067,n,,,,,0,76,76,69,957.2719132,,,,,,,,,,,,,,,,,,,,,,957.2483602,957.2719132,957.2719132,964.2480344,964.2611175,965.3121803,966.0640345,n,0,8.786750041,None,,,,AN,1,2024-11-29_20h07.20.837,soloproject,2024.1.5,None,2024-11-29 20h08.12.815958 +0530/Users/mac/Desktop/0_Solo/rockc2.jpg,,0.2,y,,,,,0,77,77,45,966.3418312,,,,,,,,,,,,,,,,,,,,,,966.0651055,966.3418312,966.3418312,973.0708607,973.3405392,973.2624756,975.9364693,n,0,9.584724167,None,,,,AN,1,2024-11-29_20h07.20.837,soloproject,2024.1.5,None,2024-11-29 20h08.12.815958 +0530/Users/mac/Desktop/0_Solo/landscapebw5.jpg,,0.2,y,,,,,0,78,78,75,975.9820325,,,,,,,,,,,,,,,,,,,,,,975.9382093,975.9820325,975.9820325,982.931506,982.9781786,983.1296777,988.2824727,y,0,12.29396204,None,,,,AN,1,2024-11-29_20h07.20.837,soloproject,2024.1.5,None,2024-11-29 20h08.12.815958 +0530/Users/mac/Desktop/0_Solo/landscapecn2.jpg,,0.4,n,,,,,0,79,79,25,988.3442279,,,,,,,,,,,,,,,,,,,,,,988.2837189,988.3442279,988.3442279,995.2827298,995.3412475,995.6790199,997.9438605,n,0,9.597102416,None,,,,AN,1,2024-11-29_20h07.20.837,soloproject,2024.1.5,None,2024-11-29 20h08.12.815958 +0530/Users/mac/Desktop/0_Solo/mmbwn4.jpg,,0.2,n,,,,,0,80,80,94,997.9717189,,,,,,,,,,,,,,,,,,,,,,997.944937,997.9717189,997.9717189,1004.941062,1004.962166,1005.130063,1006.266156,n,0,8.291152125,None,,,,AN,1,2024-11-29_20h07.20.837,soloproject,2024.1.5,None,2024-11-29 20h08.12.815958 +0530/Users/mac/Desktop/0_Solo/rockcn1.jpg,,0.533,n,,,,,0,81,81,22,1006.290889,,,,,,,,,,,,,,,,,,,,,,1006.267277,1006.290889,1006.290889,1013.266505,1013.279628,1013.798446,1015.033954,y,0,8.739457458,None,,,,AN,1,2024-11-29_20h07.20.837,soloproject,2024.1.5,None,2024-11-29 20h08.12.815958 +0530/Users/mac/Desktop/0_Solo/landscapebwn6.jpg,,0.4,n,,,,,0,82,82,95,1015.085139,,,,,,,,,,,,,,,,,,,,,,1015.035001,1015.085139,1015.085139,1022.033382,1022.08044,1022.431417,1023.444075,y,0,8.3520645,None,,,,AN,1,2024-11-29_20h07.20.837,soloproject,2024.1.5,None,2024-11-29 20h08.12.815958 +0530/Users/mac/Desktop/0_Solo/mmcn2.jpg,,0.2,n,,,,,0,83,83,29,1023.472565,,,,,,,,,,,,,,,,,,,,,,1023.445125,1023.472565,1023.472565,1030.441184,1030.464454,1030.63024,1031.58457,y,0,8.105646083,None,,,,AN,1,2024-11-29_20h07.20.837,soloproject,2024.1.5,None,2024-11-29 20h08.12.815958 +0530/Users/mac/Desktop/0_Solo/rockbwn3.jpg,,0.4,n,,,,,0,84,84,77,1031.606629,,,,,,,,,,,,,,,,,,,,,,1031.585625,1031.606629,1031.606629,1038.583101,1038.597941,1038.980679,1039.949651,n,0,8.336776125,None,,,,AN,1,2024-11-29_20h07.20.837,soloproject,2024.1.5,None,2024-11-29 20h08.12.815958 +0530/Users/mac/Desktop/0_Solo/mmc4.jpg,,0.533,y,,,,,0,85,85,85,1039.971882,,,,,,,,,,,,,,,,,,,,,,1039.950711,1039.971882,1039.971882,1046.950285,1046.964286,1047.48119,1048.067558,n,0,8.0910075,None,,,,AN,1,2024-11-29_20h07.20.837,soloproject,2024.1.5,None,2024-11-29 20h08.12.815958 +0530/Users/mac/Desktop/0_Solo/mmbw3.jpg,,0.533,y,,,,,0,86,86,46,1048.09359,,,,,,,,,,,,,,,,,,,,,,1048.068621,1048.09359,1048.09359,1055.067146,1055.093087,1055.598186,1056.900542,n,0,8.804003708,None,,,,AN,1,2024-11-29_20h07.20.837,soloproject,2024.1.5,None,2024-11-29 20h08.12.815958 +0530/Users/mac/Desktop/0_Solo/landscapec2.jpg,,0.2,y,,,,,0,87,87,20,1056.978859,,,,,,,,,,,,,,,,,,,,,,1056.901608,1056.978859,1056.978859,1063.901954,1063.976312,1064.098989,1064.7625,y,0,7.773481541,None,,,,AN,1,2024-11-29_20h07.20.837,soloproject,2024.1.5,None,2024-11-29 20h08.12.815958 +0530/Users/mac/Desktop/0_Solo/mmc5.jpg,,0.8,y,,,,,0,88,88,8,1064.791534,,,,,,,,,,,,,,,,,,,,,,1064.763957,1064.791534,1064.791534,1071.759101,1071.782162,1072.548808,1073.579117,y,0,8.777896542,None,,,,AN,1,2024-11-29_20h07.20.837,soloproject,2024.1.5,None,2024-11-29 20h08.12.815958 +0530/Users/mac/Desktop/0_Solo/landscapebw6.jpg,,0.05,y,,,,,0,89,89,39,1073.603158,,,,,,,,,,,,,,,,,,,,,,1073.580143,1073.603158,1073.603158,1080.576541,1080.598944,1080.615141,1081.412613,n,0,7.7984185,None,,,,AN,1,2024-11-29_20h07.20.837,soloproject,2024.1.5,None,2024-11-29 20h08.12.815958 +0530/Users/mac/Desktop/0_Solo/rockbw6.jpg,,0.4,y,,,,,0,90,90,80,1081.437535,,,,,,,,,,,,,,,,,,,,,,1081.413689,1081.437535,1081.437535,1088.40953,1088.432582,1088.799573,1090.702957,n,0,9.257972875,None,,,,AN,1,2024-11-29_20h07.20.837,soloproject,2024.1.5,None,2024-11-29 20h08.12.815958 +0530/Users/mac/Desktop/0_Solo/rockc4.jpg,,0.4,y,,,,,0,91,91,65,1090.728982,,,,,,,,,,,,,,,,,,,,,,1090.704051,1090.728982,1090.728982,1097.700222,1097.727368,1098.099464,1098.979488,y,0,8.243962833,None,,,,AN,1,2024-11-29_20h07.20.837,soloproject,2024.1.5,None,2024-11-29 20h08.12.815958 +0530/Users/mac/Desktop/0_Solo/rockbw3.jpg,,0.533,y,,,,,0,92,92,60,1099.033539,,,,,,,,,,,,,,,,,,,,,,1098.980358,1099.033539,1099.033539,1105.976723,1106.026287,1106.500693,1107.58697,n,0,8.546346042,None,,,,AN,1,2024-11-29_20h07.20.837,soloproject,2024.1.5,None,2024-11-29 20h08.12.815958 +0530/Users/mac/Desktop/0_Solo/landscapecn3.jpg,,0.05,n,,,,,0,93,93,62,1107.623494,,,,,,,,,,,,,,,,,,,,,,1107.588747,1107.623494,1107.623494,1114.586131,1114.6176,1114.633017,1115.576016,y,0,7.939172459,None,,,,AN,1,2024-11-29_20h07.20.837,soloproject,2024.1.5,None,2024-11-29 20h08.12.815958 +0530/Users/mac/Desktop/0_Solo/rockbwn2.jpg,,0.533,n,,,,,0,94,94,17,1115.600173,,,,,,,,,,,,,,,,,,,,,,1115.577065,1115.600173,1115.600173,1122.569354,1122.595028,1123.100301,1124.049363,y,0,8.445259792,None,,,,AN,1,2024-11-29_20h07.20.837,soloproject,2024.1.5,None,2024-11-29 20h08.12.815958 +0530/Users/mac/Desktop/0_Solo/mmcn3.jpg,,0.05,n,,,,,0,95,95,78,1124.084297,,,,,,,,,,,,,,,,,,,,,,1124.051401,1124.084297,1124.084297,1131.04417,1131.078581,1131.08305,1132.305185,n,0,8.213428708,None,,,,AN,1,2024-11-29_20h07.20.837,soloproject,2024.1.5,None,2024-11-29 20h08.12.815958 +0530,,,,,,,,,,,,,,,,,,,,,,,,,,,,,,,,,,,,,,,,,,,,,1132.306076,1132.32554,1132.811796,AN,1,2024-11-29_20h07.20.837,soloproject,2024.1.5,None,2024-11-29 20h08.12.815958 +0530