image,type,duration,corr_ans,trials.thisRepN,trials.thisTrialN,trials.thisN,trials.thisIndex,trials_2.thisRepN,trials_2.thisTrialN,trials_2.thisN,trials_2.thisIndex,thisRow.t,notes,instructions.started,text.started,key_resp_2.started,instructions.stopped,key_resp_2.keys,key_resp_2.rt,key_resp_2.duration,original.started,fixation1.started,image1.started,image1.stopped,fixation1.stopped,original.stopped,instructions2.started,text_2.started,keyresp.started,instructions2.stopped,keyresp.keys,keyresp.rt,keyresp.duration,mixed.started,fixation2.started,key_resp.started,image_2.started,fixation2.stopped,image_2.stopped,mixed.stopped,key_resp.keys,key_resp.corr,key_resp.rt,key_resp.duration,thanks.started,text_3.started,text_3.stopped,thanks.stopped,participant,session,date,expName,psychopyVersion,frameRate,expStart,
,,,,,,,,,,,,,,0.02447879093233496,0.04554754099808633,0.04554754099808633,6.925467499997467,space,6.868521916912869,None,,,,,,,,,,,,,,,,,,,,,,,,,,,,,393481,001,2024-11-29_22h00.44.298,soloproject,2024.1.5,None,2024-11-29 22h00.54.512570 +0530,
/Users/mac/Desktop/0_Solo/landscapebw2.jpg,bnw,0.05,,0,0,0,47,,,,,6.995817582937889,,,,,,,,,6.9608107910025865,6.995817582937889,13.927990332944319,13.974247790989466,13.99742095801048,13.980623624986038,,,,,,,,,,,,,,,,,,,,,,,393481,001,2024-11-29_22h00.44.298,soloproject,2024.1.5,None,2024-11-29 22h00.54.512570 +0530,
/Users/mac/Desktop/0_Solo/landscapebw3.jpg,bnw,0.533,,0,1,1,42,,,,,13.99742095801048,,,,,,,,,13.981156582944095,13.99742095801048,20.97352979099378,21.515151832951233,20.991379332961515,21.492545958026312,,,,,,,,,,,,,,,,,,,,,,,393481,001,2024-11-29_22h00.44.298,soloproject,2024.1.5,None,2024-11-29 22h00.54.512570 +0530,
/Users/mac/Desktop/0_Solo/landscapec5.jpg,colour,0.4,,0,2,2,27,,,,,21.515151832951233,,,,,,,,,21.493078124942258,21.515151832951233,28.48278908303473,28.95222700003069,28.508209832943976,28.87569216603879,,,,,,,,,,,,,,,,,,,,,,,393481,001,2024-11-29_22h00.44.298,soloproject,2024.1.5,None,2024-11-29 22h00.54.512570 +0530,
/Users/mac/Desktop/0_Solo/flowerc3.jpg,colour,0.05,,0,3,3,35,,,,,28.95222700003069,,,,,,,,,28.876332540996373,28.95222700003069,35.86724070797209,35.91350545804016,35.969978915993124,35.94210879097227,,,,,,,,,,,,,,,,,,,,,,,393481,001,2024-11-29_22h00.44.298,soloproject,2024.1.5,None,2024-11-29 22h00.54.512570 +0530,
/Users/mac/Desktop/0_Solo/landscapec4.jpg,colour,0.4,,0,4,4,23,,,,,35.969978915993124,,,,,,,,,35.94255041598808,35.969978915993124,42.93268112500664,43.34724341600668,42.96415437501855,43.3259209159296,,,,,,,,,,,,,,,,,,,,,,,393481,001,2024-11-29_22h00.44.298,soloproject,2024.1.5,None,2024-11-29 22h00.54.512570 +0530,
/Users/mac/Desktop/0_Solo/mmbw1.jpg,bnw,0.4,,0,5,5,30,,,,,43.34724341600668,,,,,,,,,43.32641124993097,43.34724341600668,50.31708249996882,50.99025279097259,50.342094582971185,50.70977329101879,,,,,,,,,,,,,,,,,,,,,,,393481,001,2024-11-29_22h00.44.298,soloproject,2024.1.5,None,2024-11-29 22h00.54.512570 +0530,
/Users/mac/Desktop/0_Solo/rockc2.jpg,colour,0.533,,0,6,6,31,,,,,50.99025279097259,,,,,,,,,50.71026295796037,50.99025279097259,57.723670374951325,58.3324687499553,57.98076695797499,58.24251100001857,,,,,,,,,,,,,,,,,,,,,,,393481,001,2024-11-29_22h00.44.298,soloproject,2024.1.5,None,2024-11-29 22h00.54.512570 +0530,
/Users/mac/Desktop/0_Solo/flowerbw6.jpg,bnw,0.2,,0,7,7,39,,,,,58.3324687499553,,,,,,,,,58.243450207985006,58.3324687499553,65.23533325002063,65.49490933294874,65.3260054999264,65.42651404102799,,,,,,,,,,,,,,,,,,,,,,,393481,001,2024-11-29_22h00.44.298,soloproject,2024.1.5,None,2024-11-29 22h00.54.512570 +0530,
/Users/mac/Desktop/0_Solo/flowerbw3.jpg,bnw,0.4,,0,8,8,43,,,,,65.49490933294874,,,,,,,,,65.42694562498946,65.49490933294874,72.42026008293033,72.85107087495271,72.49294516595546,72.81018104101531,,,,,,,,,,,,,,,,,,,,,,,393481,001,2024-11-29_22h00.44.298,soloproject,2024.1.5,None,2024-11-29 22h00.54.512570 +0530,
/Users/mac/Desktop/0_Solo/flowerbw1.jpg,bnw,0.2,,0,9,9,26,,,,,72.85107087495271,,,,,,,,,72.81091045797803,72.85107087495271,79.80266020796262,80.00856583297718,79.84730512497481,79.99322879093233,,,,,,,,,,,,,,,,,,,,,,,393481,001,2024-11-29_22h00.44.298,soloproject,2024.1.5,None,2024-11-29 22h00.54.512570 +0530,
/Users/mac/Desktop/0_Solo/rockc1.jpg,colour,0.8,,0,10,10,16,,,,,80.00856583297718,,,,,,,,,79.99347758293152,80.00856583297718,86.9830668750219,87.8059600830311,86.99864999996498,87.7663493329892,,,,,,,,,,,,,,,,,,,,,,,393481,001,2024-11-29_22h00.44.298,soloproject,2024.1.5,None,2024-11-29 22h00.54.512570 +0530,
/Users/mac/Desktop/0_Solo/flowerbw4.jpg,bnw,0.2,,0,11,11,5,,,,,87.8059600830311,,,,,,,,,87.7677805830026,87.8059600830311,94.76219812501222,94.97220600000583,94.7986506660236,94.950246833032,,,,,,,,,,,,,,,,,,,,,,,393481,001,2024-11-29_22h00.44.298,soloproject,2024.1.5,None,2024-11-29 22h00.54.512570 +0530,
/Users/mac/Desktop/0_Solo/rockbw6.jpg,bnw,0.4,,0,12,12,8,,,,,94.97220600000583,,,,,,,,,94.95084245793987,94.97220600000583,101.94313433300704,102.35090754099656,101.9650266659446,102.32784991594963,,,,,,,,,,,,,,,,,,,,,,,393481,001,2024-11-29_22h00.44.298,soloproject,2024.1.5,None,2024-11-29 22h00.54.512570 +0530,
/Users/mac/Desktop/0_Solo/flowerbw5.jpg,bnw,0.533,,0,13,13,22,,,,,102.35090754099656,,,,,,,,,102.32908687496092,102.35090754099656,109.31844958302099,109.86869745794684,109.34360783302691,109.84446341602597,,,,,,,,,,,,,,,,,,,,,,,393481,001,2024-11-29_22h00.44.298,soloproject,2024.1.5,None,2024-11-29 22h00.54.512570 +0530,
/Users/mac/Desktop/0_Solo/landscapec6.jpg,colour,1.067,,0,14,14,18,,,,,109.86869745794684,,,,,,,,,109.84524275001604,109.86869745794684,116.83425700000953,117.943325500004,116.86575637501664,117.89468845794909,,,,,,,,,,,,,,,,,,,,,,,393481,001,2024-11-29_22h00.44.298,soloproject,2024.1.5,None,2024-11-29 22h00.54.512570 +0530,
/Users/mac/Desktop/0_Solo/rockbw4.jpg,bnw,0.8,,0,15,15,29,,,,,117.943325500004,,,,,,,,,117.89540254103485,117.943325500004,124.88707845797762,125.75471174996346,124.93264754093252,125.67798554094043,,,,,,,,,,,,,,,,,,,,,,,393481,001,2024-11-29_22h00.44.298,soloproject,2024.1.5,None,2024-11-29 22h00.54.512570 +0530,
/Users/mac/Desktop/0_Solo/flowerc5.jpg,colour,0.2,,0,16,16,11,,,,,125.75471174996346,,,,,,,,,125.67843495798297,125.75471174996346,132.6700044160243,132.8909832079662,132.74956066603772,132.8621359579265,,,,,,,,,,,,,,,,,,,,,,,393481,001,2024-11-29_22h00.44.298,soloproject,2024.1.5,None,2024-11-29 22h00.54.512570 +0530,
/Users/mac/Desktop/0_Solo/mmc5.jpg,colour,0.2,,0,17,17,34,,,,,132.8909832079662,,,,,,,,,132.86283112503588,132.8909832079662,139.86014979099855,140.07076987496112,139.88329879101366,140.04536020802334,,,,,,,,,,,,,,,,,,,,,,,393481,001,2024-11-29_22h00.44.298,soloproject,2024.1.5,None,2024-11-29 22h00.54.512570 +0530,
/Users/mac/Desktop/0_Solo/mmc2.jpg,colour,0.8,,0,18,18,46,,,,,140.07076987496112,,,,,,,,,140.04606837499887,140.07076987496112,147.0359526249813,147.86062891595066,147.06571062502917,147.81895466602873,,,,,,,,,,,,,,,,,,,,,,,393481,001,2024-11-29_22h00.44.298,soloproject,2024.1.5,None,2024-11-29 22h00.54.512570 +0530,
/Users/mac/Desktop/0_Solo/rockbw1.jpg,bnw,0.4,,0,19,19,12,,,,,147.86062891595066,,,,,,,,,147.81943758297712,147.86062891595066,154.81072987499647,155.34956216602586,154.8503944579279,155.1955703329295,,,,,,,,,,,,,,,,,,,,,,,393481,001,2024-11-29_22h00.44.298,soloproject,2024.1.5,None,2024-11-29 22h00.54.512570 +0530,
/Users/mac/Desktop/0_Solo/landscapec1.jpg,colour,1.067,,0,20,20,33,,,,,155.34956216602586,,,,,,,,,155.19608249992598,155.34956216602586,162.18913254095241,163.3012792909285,162.34533512499183,163.2458833749406,,,,,,,,,,,,,,,,,,,,,,,393481,001,2024-11-29_22h00.44.298,soloproject,2024.1.5,None,2024-11-29 22h00.54.512570 +0530,
/Users/mac/Desktop/0_Solo/landscapec3.jpg,colour,0.533,,0,21,21,6,,,,,163.3012792909285,,,,,,,,,163.2463707079878,163.3012792909285,170.23634854098782,170.7740358329611,170.29551212501246,170.75235495797824,,,,,,,,,,,,,,,,,,,,,,,393481,001,2024-11-29_22h00.44.298,soloproject,2024.1.5,None,2024-11-29 22h00.54.512570 +0530,
/Users/mac/Desktop/0_Solo/mmbw4.jpg,bnw,0.05,,0,22,22,17,,,,,170.7740358329611,,,,,,,,,170.752835916006,170.7740358329611,177.7446490409784,177.79986941593233,177.7676562910201,177.7795510829892,,,,,,,,,,,,,,,,,,,,,,,393481,001,2024-11-29_22h00.44.298,soloproject,2024.1.5,None,2024-11-29 22h00.54.512570 +0530,
/Users/mac/Desktop/0_Solo/mmc6.jpg,colour,1.067,,0,23,23,9,,,,,177.79986941593233,,,,,,,,,177.7799307910027,177.79986941593233,184.76999325002544,185.8693720829906,184.79593262495473,185.8300571249565,,,,,,,,,,,,,,,,,,,,,,,393481,001,2024-11-29_22h00.44.298,soloproject,2024.1.5,None,2024-11-29 22h00.54.512570 +0530,
/Users/mac/Desktop/0_Solo/flowerc2.jpg,colour,0.4,,0,24,24,4,,,,,185.8693720829906,,,,,,,,,185.8305937499972,185.8693720829906,192.8207710830029,193.30631554103456,192.8627709579887,193.21402133302763,,,,,,,,,,,,,,,,,,,,,,,393481,001,2024-11-29_22h00.44.298,soloproject,2024.1.5,None,2024-11-29 22h00.54.512570 +0530,
/Users/mac/Desktop/0_Solo/rockc5.jpg,colour,0.2,,0,25,25,20,,,,,193.30631554103456,,,,,,,,,193.2148812910309,193.30631554103456,200.21242641599383,200.42203145800158,200.3014531249646,200.39673054101877,,,,,,,,,,,,,,,,,,,,,,,393481,001,2024-11-29_22h00.44.298,soloproject,2024.1.5,None,2024-11-29 22h00.54.512570 +0530,
/Users/mac/Desktop/0_Solo/rockbw2.jpg,bnw,0.8,,0,26,26,37,,,,,200.42203145800158,,,,,,,,,200.39712274994235,200.42203145800158,207.38767462503165,208.24417641595937,207.41842595802154,208.1806667080382,,,,,,,,,,,,,,,,,,,,,,,393481,001,2024-11-29_22h00.44.298,soloproject,2024.1.5,None,2024-11-29 22h00.54.512570 +0530,
/Users/mac/Desktop/0_Solo/flowerc4.jpg,colour,0.05,,0,27,27,28,,,,,208.24417641595937,,,,,,,,,208.18114679097198,208.24417641595937,215.1713572909357,215.2192809160333,215.2603555410169,215.23047750000842,,,,,,,,,,,,,,,,,,,,,,,393481,001,2024-11-29_22h00.44.298,soloproject,2024.1.5,None,2024-11-29 22h00.54.512570 +0530,
/Users/mac/Desktop/0_Solo/rockc6.jpg,colour,1.067,,0,28,28,25,,,,,215.2603555410169,,,,,,,,,215.23086454102304,215.2603555410169,222.2212252910249,223.34444274997804,222.2524723749375,223.28105954104103,,,,,,,,,,,,,,,,,,,,,,,393481,001,2024-11-29_22h00.44.298,soloproject,2024.1.5,None,2024-11-29 22h00.54.512570 +0530,
/Users/mac/Desktop/0_Solo/rockc3.jpg,colour,1.067,,0,29,29,36,,,,,223.34444274997804,,,,,,,,,223.28154041594826,223.34444274997804,230.2720817499794,231.361568332999,230.33625737496186,231.33122804097366,,,,,,,,,,,,,,,,,,,,,,,393481,001,2024-11-29_22h00.44.298,soloproject,2024.1.5,None,2024-11-29 22h00.54.512570 +0530,
/Users/mac/Desktop/0_Solo/rockbw5.jpg,bnw,0.05,,0,30,30,41,,,,,231.361568332999,,,,,,,,,231.33164258301258,231.361568332999,238.3213150409283,238.3845022500027,238.35273270797916,238.36460349999834,,,,,,,,,,,,,,,,,,,,,,,393481,001,2024-11-29_22h00.44.298,soloproject,2024.1.5,None,2024-11-29 22h00.54.512570 +0530,
/Users/mac/Desktop/0_Solo/mmc3.jpg,colour,1.067,,0,31,31,3,,,,,238.3845022500027,,,,,,,,,238.3649766659364,238.3845022500027,245.35543400002643,246.43583291594405,245.3808523749467,246.4152006249642,,,,,,,,,,,,,,,,,,,,,,,393481,001,2024-11-29_22h00.44.298,soloproject,2024.1.5,None,2024-11-29 22h00.54.512570 +0530,
/Users/mac/Desktop/0_Solo/landscapebw4.jpg,bnw,0.2,,0,32,32,14,,,,,246.43583291594405,,,,,,,,,246.41575233300682,246.43583291594405,253.40591750002932,253.65872208296787,253.4311829159269,253.59854208293837,,,,,,,,,,,,,,,,,,,,,,,393481,001,2024-11-29_22h00.44.298,soloproject,2024.1.5,None,2024-11-29 22h00.54.512570 +0530,
/Users/mac/Desktop/0_Solo/flowerc6.jpg,colour,0.8,,0,33,33,0,,,,,253.65872208296787,,,,,,,,,253.59928279102314,253.65872208296787,260.59050029097125,261.4087829160271,260.65269283298403,261.38235729094595,,,,,,,,,,,,,,,,,,,,,,,393481,001,2024-11-29_22h00.44.298,soloproject,2024.1.5,None,2024-11-29 22h00.54.512570 +0530,
/Users/mac/Desktop/0_Solo/rockc4.jpg,colour,0.05,,0,34,34,2,,,,,261.4087829160271,,,,,,,,,261.3830248329323,261.4087829160271,268.38104745803867,268.4373899579514,268.40346433303785,268.41548833297566,,,,,,,,,,,,,,,,,,,,,,,393481,001,2024-11-29_22h00.44.298,soloproject,2024.1.5,None,2024-11-29 22h00.54.512570 +0530,
/Users/mac/Desktop/0_Solo/landscapebw2.jpg,bnw,0.8,,0,35,35,10,,,,,268.4373899579514,,,,,,,,,268.4158771659713,268.4373899579514,275.40628816594835,276.26682666596025,275.4318165000295,276.19889829098247,,,,,,,,,,,,,,,,,,,,,,,393481,001,2024-11-29_22h00.44.298,soloproject,2024.1.5,None,2024-11-29 22h00.54.512570 +0530,
/Users/mac/Desktop/0_Solo/landscapec2.jpg,colour,0.4,,0,36,36,40,,,,,276.26682666596025,,,,,,,,,276.1993889999576,276.26682666596025,283.1899784159614,283.6046970830066,283.26542945799883,283.58272116596345,,,,,,,,,,,,,,,,,,,,,,,393481,001,2024-11-29_22h00.44.298,soloproject,2024.1.5,None,2024-11-29 22h00.54.512570 +0530,
/Users/mac/Desktop/0_Solo/landscapebw6.jpg,bnw,0.533,,0,37,37,38,,,,,283.6046970830066,,,,,,,,,283.58321637497284,283.6046970830066,290.57287449995056,291.13800375000574,290.5987944579683,291.0900329579599,,,,,,,,,,,,,,,,,,,,,,,393481,001,2024-11-29_22h00.44.298,soloproject,2024.1.5,None,2024-11-29 22h00.54.512570 +0530,
/Users/mac/Desktop/0_Solo/rockbw3.jpg,bnw,1.067,,0,38,38,44,,,,,291.13800375000574,,,,,,,,,291.090554791037,291.13800375000574,298.09092487499584,299.31540058297105,298.13252658303827,299.149646790931,,,,,,,,,,,,,,,,,,,,,,,393481,001,2024-11-29_22h00.44.298,soloproject,2024.1.5,None,2024-11-29 22h00.54.512570 +0530,
/Users/mac/Desktop/0_Solo/mmc1.jpg,colour,1.067,,0,39,39,13,,,,,299.31540058297105,,,,,,,,,299.1501367909368,299.31540058297105,306.143319124938,307.2324130409397,306.3050597499823,307.2002550410107,,,,,,,,,,,,,,,,,,,,,,,393481,001,2024-11-29_22h00.44.298,soloproject,2024.1.5,None,2024-11-29 22h00.54.512570 +0530,
/Users/mac/Desktop/0_Solo/mmbw2.jpg,bnw,0.05,,0,40,40,7,,,,,307.2324130409397,,,,,,,,,307.2007958330214,307.2324130409397,314.1902969159419,314.2942634159699,314.22154054103885,314.23326287500095,,,,,,,,,,,,,,,,,,,,,,,393481,001,2024-11-29_22h00.44.298,soloproject,2024.1.5,None,2024-11-29 22h00.54.512570 +0530,
/Users/mac/Desktop/0_Solo/flowerc1.jpg,colour,0.8,,0,41,41,32,,,,,314.2942634159699,,,,,,,,,314.23364237498026,314.2942634159699,321.2250435829628,322.04273912496865,321.2878866250394,322.0177549159853,,,,,,,,,,,,,,,,,,,,,,,393481,001,2024-11-29_22h00.44.298,soloproject,2024.1.5,None,2024-11-29 22h00.54.512570 +0530,
/Users/mac/Desktop/0_Solo/mmbw6.jpg,bnw,0.533,,0,42,42,24,,,,,322.04273912496865,,,,,,,,,322.01827966596466,322.04273912496865,329.01616858295165,329.5533470000373,329.03802662494127,329.53378158295527,,,,,,,,,,,,,,,,,,,,,,,393481,001,2024-11-29_22h00.44.298,soloproject,2024.1.5,None,2024-11-29 22h00.54.512570 +0530,
/Users/mac/Desktop/0_Solo/mmbw5.jpg,bnw,0.2,,0,43,43,45,,,,,329.5533470000373,,,,,,,,,329.534543916001,329.5533470000373,336.52454987494275,336.7362848749617,336.55025566602126,336.71782074996736,,,,,,,,,,,,,,,,,,,,,,,393481,001,2024-11-29_22h00.44.298,soloproject,2024.1.5,None,2024-11-29 22h00.54.512570 +0530,
/Users/mac/Desktop/0_Solo/mmc4.jpg,colour,0.05,,0,44,44,19,,,,,336.7362848749617,,,,,,,,,336.7182639579987,336.7362848749617,343.7082995829405,343.787325332989,343.73375087499153,343.7511112500215,,,,,,,,,,,,,,,,,,,,,,,393481,001,2024-11-29_22h00.44.298,soloproject,2024.1.5,None,2024-11-29 22h00.54.512570 +0530,
/Users/mac/Desktop/0_Solo/flowerbw2.jpg,bnw,0.533,,0,45,45,15,,,,,343.787325332989,,,,,,,,,343.75160116597544,343.787325332989,350.7417372500058,351.28911437501665,350.7839717910392,351.26815162494313,,,,,,,,,,,,,,,,,,,,,,,393481,001,2024-11-29_22h00.44.298,soloproject,2024.1.5,None,2024-11-29 22h00.54.512570 +0530,
/Users/mac/Desktop/0_Solo/landscapebw1.jpg,bnw,0.8,,0,46,46,21,,,,,351.28911437501665,,,,,,,,,351.26863541593775,351.28911437501665,358.25825720792636,359.07461529097054,358.28430895798374,359.05154145800043,,,,,,,,,,,,,,,,,,,,,,,393481,001,2024-11-29_22h00.44.298,soloproject,2024.1.5,None,2024-11-29 22h00.54.512570 +0530,
/Users/mac/Desktop/0_Solo/landscapebw5.jpg,bnw,0.533,,0,47,47,1,,,,,359.07461529097054,,,,,,,,,359.0520169159863,359.07461529097054,366.0417779579293,366.57400708296336,366.067586707999,366.55892087495886,,,,,,,,,,,,,,,,,,,,,,,393481,001,2024-11-29_22h00.44.298,soloproject,2024.1.5,None,2024-11-29 22h00.54.512570 +0530,
,,,,,,,,,,,,,,,,,,,,,,,,,,,366.55923191597685,366.57400708296336,366.57400708296336,426.13008612499107,space,59.5209399999585,None,,,,,,,,,,,,,,,,393481,001,2024-11-29_22h00.44.298,soloproject,2024.1.5,None,2024-11-29 22h00.54.512570 +0530,
/Users/mac/Desktop/0_Solo/landscapebwn2.jpg,,1.067,n,,,,,0,0,0,43,426.3388111660024,,,,,,,,,,,,,,,,,,,,,,426.18481858295854,426.3388111660024,426.3388111660024,433.12997649994213,433.3364224160323,434.1919847499812,435.1271039999556,y,0,8.78498083294835,None,,,,,393481,001,2024-11-29_22h00.44.298,soloproject,2024.1.5,None,2024-11-29 22h00.54.512570 +0530,
/Users/mac/Desktop/0_Solo/mmbwn2.jpg,,0.05,n,,,,,0,1,1,18,435.14630449994,,,,,,,,,,,,,,,,,,,,,,435.13026120793074,435.14630449994,435.14630449994,442.126696583,442.1411287080264,442.1746849999763,444.64409179100767,n,0,9.492401666939259,None,,,,,393481,001,2024-11-29_22h00.44.298,soloproject,2024.1.5,None,2024-11-29 22h00.54.512570 +0530,
/Users/mac/Desktop/0_Solo/flowerc5.jpg,,0.2,y,,,,,0,2,2,83,444.71862008294556,,,,,,,,,,,,,,,,,,,,,,444.64515100000426,444.71862008294556,444.71862008294556,451.6455152910203,451.70938045799267,451.84244249993935,453.0473502499517,n,0,8.321900959010236,None,,,,,393481,001,2024-11-29_22h00.44.298,soloproject,2024.1.5,None,2024-11-29 22h00.54.512570 +0530,
/Users/mac/Desktop/0_Solo/rockbwn2.jpg,,0.533,n,,,,,0,3,3,17,453.0809149580309,,,,,,,,,,,,,,,,,,,,,,453.0485220409464,453.0809149580309,453.0809149580309,460.0451912910212,460.0760947079398,460.57626683299895,460.9444801249774,n,0,7.8587389580206946,None,,,,,393481,001,2024-11-29_22h00.44.298,soloproject,2024.1.5,None,2024-11-29 22h00.54.512570 +0530,
/Users/mac/Desktop/0_Solo/mmbw2.jpg,,0.2,y,,,,,0,4,4,7,460.9686829999555,,,,,,,,,,,,,,,,,,,,,,460.94542725000065,460.9686829999555,460.9686829999555,467.94390970794484,467.95920704095624,468.13753345794976,469.22770024999045,n,0,8.254264582996257,None,,,,,393481,001,2024-11-29_22h00.44.298,soloproject,2024.1.5,None,2024-11-29 22h00.54.512570 +0530,
/Users/mac/Desktop/0_Solo/flowerbwn2.jpg,,0.05,n,,,,,0,5,5,50,469.2448710829485,,,,,,,,,,,,,,,,,,,,,,469.2285603330238,469.2448710829485,469.2448710829485,476.22798075003084,476.2370370409917,476.2762337080203,477.3403292079456,y,0,8.083727332996204,None,,,,,393481,001,2024-11-29_22h00.44.298,soloproject,2024.1.5,None,2024-11-29 22h00.54.512570 +0530,
/Users/mac/Desktop/0_Solo/mmbwn4.jpg,,0.2,n,,,,,0,6,6,94,477.364626916009,,,,,,,,,,,,,,,,,,,,,,477.3414126249263,477.364626916009,477.364626916009,484.3372514999937,484.35985958296806,484.5264658749802,485.25691274995916,y,0,7.886032624985091,None,,,,,393481,001,2024-11-29_22h00.44.298,soloproject,2024.1.5,None,2024-11-29 22h00.54.512570 +0530,
/Users/mac/Desktop/0_Solo/rockcn5.jpg,,0.05,n,,,,,0,7,7,0,485.2811939159874,,,,,,,,,,,,,,,,,,,,,,485.2583707909798,485.2811939159874,485.2811939159874,492.2535989159951,492.2770262080012,492.2927337499568,497.09547470801044,n,0,11.807971375063062,None,,,,,393481,001,2024-11-29_22h00.44.298,soloproject,2024.1.5,None,2024-11-29 22h00.54.512570 +0530,
/Users/mac/Desktop/0_Solo/rockc3.jpg,,0.8,y,,,,,0,8,8,5,497.1629321250366,,,,,,,,,,,,,,,,,,,,,,497.09632458293345,497.1629321250366,497.1629321250366,504.0878660409944,504.1607690829551,,504.4798116659513,y,0,7.31137412507087,None,,,,,393481,001,2024-11-29_22h00.44.298,soloproject,2024.1.5,None,2024-11-29 22h00.54.512570 +0530,
/Users/mac/Desktop/0_Solo/rockcn4.jpg,,0.533,n,,,,,0,9,9,2,504.5073206659872,,,,,,,,,,,,,,,,,,,,,,504.48060337500647,504.5073206659872,504.5073206659872,511.47910516592674,511.50524037494324,512.0053665409796,512.1405909999739,n,0,7.624142040964216,None,,,,,393481,001,2024-11-29_22h00.44.298,soloproject,2024.1.5,None,2024-11-29 22h00.54.512570 +0530,
/Users/mac/Desktop/0_Solo/mmc2.jpg,,0.4,y,,,,,0,10,10,55,512.1590925829951,,,,,,,,,,,,,,,,,,,,,,512.1414048749721,512.1590925829951,512.1590925829951,519.1382776249666,519.1552747079404,519.5275174579583,519.7916106249904,n,0,7.626155124977231,None,,,,,393481,001,2024-11-29_22h00.44.298,soloproject,2024.1.5,None,2024-11-29 22h00.54.512570 +0530,
/Users/mac/Desktop/0_Solo/landscapec3.jpg,,0.8,y,,,,,0,11,11,24,519.8468374999939,,,,,,,,,,,,,,,,,,,,,,519.7926595410099,519.8468374999939,519.8468374999939,,,,520.6068392499583,n,0,0.7514025419950485,None,,,,,393481,001,2024-11-29_22h00.44.298,soloproject,2024.1.5,None,2024-11-29 22h00.54.512570 +0530,
/Users/mac/Desktop/0_Solo/rockbw6.jpg,,0.4,y,,,,,0,12,12,80,520.6286894580116,,,,,,,,,,,,,,,,,,,,,,520.6075180410407,520.6286894580116,520.6286894580116,527.6053162909811,527.6222017910331,527.9944954159437,528.5132369579514,n,0,7.8793052500113845,None,,,,,393481,001,2024-11-29_22h00.44.298,soloproject,2024.1.5,None,2024-11-29 22h00.54.512570 +0530,
/Users/mac/Desktop/0_Solo/mmcn2.jpg,,0.2,n,,,,,0,13,13,29,528.5361127499491,,,,,,,,,,,,,,,,,,,,,,528.5140564159956,528.5361127499491,528.5361127499491,535.5135462080361,535.5274094999768,535.7114185829414,536.1137274160283,n,0,7.571610208018683,None,,,,,393481,001,2024-11-29_22h00.44.298,soloproject,2024.1.5,None,2024-11-29 22h00.54.512570 +0530,
/Users/mac/Desktop/0_Solo/mmc1.jpg,,1.067,y,,,,,0,14,14,81,536.2615118749673,,,,,,,,,,,,,,,,,,,,,,536.1147607499734,536.2615118749673,536.2615118749673,543.1157916659722,543.2557335830061,,543.5145060409559,y,0,7.248828250099905,None,,,,,393481,001,2024-11-29_22h00.44.298,soloproject,2024.1.5,None,2024-11-29 22h00.54.512570 +0530,
/Users/mac/Desktop/0_Solo/flowerc4.jpg,,1.067,y,,,,,0,15,15,90,543.5877700409619,,,,,,,,,,,,,,,,,,,,,,543.5154526659753,543.5877700409619,543.5877700409619,550.5137293329462,550.5788013749989,,551.3249582499266,y,0,7.727618833887391,None,,,,,393481,001,2024-11-29_22h00.44.298,soloproject,2024.1.5,None,2024-11-29 22h00.54.512570 +0530,
/Users/mac/Desktop/0_Solo/landscapec1.jpg,,0.8,y,,,,,0,16,16,86,551.4619645409985,,,,,,,,,,,,,,,,,,,,,,551.3259138750145,551.4619645409985,551.4619645409985,,,,551.6965550410096,n,0,0.22885858302470297,None,,,,,393481,001,2024-11-29_22h00.44.298,soloproject,2024.1.5,None,2024-11-29 22h00.54.512570 +0530,
/Users/mac/Desktop/0_Solo/landscapebw3.jpg,,0.8,y,,,,,0,17,17,82,551.7202880829573,,,,,,,,,,,,,,,,,,,,,,551.6971372909611,551.7202880829573,551.7202880829573,558.6971323749749,558.7112929580035,559.4900658329716,560.5974039579742,y,0,8.87386954203248,None,,,,,393481,001,2024-11-29_22h00.44.298,soloproject,2024.1.5,None,2024-11-29 22h00.54.512570 +0530,
/Users/mac/Desktop/0_Solo/landscapecn6.jpg,,1.067,n,,,,,0,18,18,69,560.6196378329769,,,,,,,,,,,,,,,,,,,,,,560.5982328329701,560.6196378329769,560.6196378329769,567.598303540959,567.6111011659959,,568.5480890410254,n,0,7.922471084049903,None,,,,,393481,001,2024-11-29_22h00.44.298,soloproject,2024.1.5,None,2024-11-29 22h00.54.512570 +0530,
/Users/mac/Desktop/0_Solo/mmcn4.jpg,,1.067,n,,,,,0,19,19,28,568.5713208749657,,,,,,,,,,,,,,,,,,,,,,568.5488929159474,568.5713208749657,568.5713208749657,575.5489698749734,575.5622204999672,,576.5422486659372,y,0,7.964993582922034,None,,,,,393481,001,2024-11-29_22h00.44.298,soloproject,2024.1.5,None,2024-11-29 22h00.54.512570 +0530,
/Users/mac/Desktop/0_Solo/rockbw2.jpg,,0.8,y,,,,,0,20,20,91,576.5650122079533,,,,,,,,,,,,,,,,,,,,,,576.5431160000153,576.5650122079533,576.5650122079533,583.5402273749933,583.5569784159306,584.3291827499634,584.3308005409781,y,0,7.761792375007644,None,,,,,393481,001,2024-11-29_22h00.44.298,soloproject,2024.1.5,None,2024-11-29 22h00.54.512570 +0530,
/Users/mac/Desktop/0_Solo/rockc4.jpg,,0.4,y,,,,,0,21,21,65,584.3555015829625,,,,,,,,,,,,,,,,,,,,,,584.3316298329737,584.3555015829625,584.3555015829625,591.3231924159918,591.3464015410282,591.7137366660172,592.6828948330367,n,0,8.323477957979776,None,,,,,393481,001,2024-11-29_22h00.44.298,soloproject,2024.1.5,None,2024-11-29 22h00.54.512570 +0530,
/Users/mac/Desktop/0_Solo/flowerbwn3.jpg,,0.2,n,,,,,0,22,22,4,592.7492065000115,,,,,,,,,,,,,,,,,,,,,,592.6839053749572,592.7492065000115,592.7492065000115,599.6820527910022,599.7461950830184,599.8744577079779,600.6315436250297,y,0,7.878135125036351,None,,,,,393481,001,2024-11-29_22h00.44.298,soloproject,2024.1.5,None,2024-11-29 22h00.54.512570 +0530,
/Users/mac/Desktop/0_Solo/landscapecn3.jpg,,0.05,n,,,,,0,23,23,62,600.6591789580416,,,,,,,,,,,,,,,,,,,,,,600.6323974159313,600.6591789580416,600.6591789580416,607.6325132079655,607.6579930409789,607.6798430409981,608.8934322909918,n,0,8.226566458004527,None,,,,,393481,001,2024-11-29_22h00.44.298,soloproject,2024.1.5,None,2024-11-29 22h00.54.512570 +0530,
/Users/mac/Desktop/0_Solo/landscapecn5.jpg,,1.067,n,,,,,0,24,24,61,608.917229957995,,,,,,,,,,,,,,,,,,,,,,608.8945000829408,608.917229957995,608.917229957995,615.8911086249864,615.9134010409471,616.94691220799,617.2613405829761,n,0,8.337325041997246,None,,,,,393481,001,2024-11-29_22h00.44.298,soloproject,2024.1.5,None,2024-11-29 22h00.54.512570 +0530,
/Users/mac/Desktop/0_Solo/flowerbw5.jpg,,0.4,y,,,,,0,25,25,12,617.2824122080347,,,,,,,,,,,,,,,,,,,,,,617.2625197499292,617.2824122080347,617.2824122080347,624.2580761660356,624.2750927079469,624.647697874927,625.7443691659719,n,0,8.453450749977492,None,,,,,393481,001,2024-11-29_22h00.44.298,soloproject,2024.1.5,None,2024-11-29 22h00.54.512570 +0530,
/Users/mac/Desktop/0_Solo/rockcn2.jpg,,1.067,n,,,,,0,26,26,40,625.769376332988,,,,,,,,,,,,,,,,,,,,,,625.7459352079313,625.769376332988,625.769376332988,632.7419541249983,632.7637142080348,633.7989551660139,633.8666396660265,n,0,8.09214449999854,None,,,,,393481,001,2024-11-29_22h00.44.298,soloproject,2024.1.5,None,2024-11-29 22h00.54.512570 +0530,
/Users/mac/Desktop/0_Solo/flowercn3.jpg,,0.05,n,,,,,0,27,27,73,633.9477124159457,,,,,,,,,,,,,,,,,,,,,,633.8676637079334,633.9477124159457,633.9477124159457,640.8678154579829,640.9425512079615,640.9148307499709,642.7024525409797,y,0,8.75176566594746,None,,,,,393481,001,2024-11-29_22h00.44.298,soloproject,2024.1.5,None,2024-11-29 22h00.54.512570 +0530,
/Users/mac/Desktop/0_Solo/mmbw3.jpg,,0.533,y,,,,,0,28,28,46,642.7320223329589,,,,,,,,,,,,,,,,,,,,,,642.7034026660258,642.7320223329589,642.7320223329589,649.7000893750228,649.7260944159934,650.22620920802,650.7174759160262,y,0,7.98223645798862,None,,,,,393481,001,2024-11-29_22h00.44.298,soloproject,2024.1.5,None,2024-11-29 22h00.54.512570 +0530,
/Users/mac/Desktop/0_Solo/mmbw1.jpg,,0.533,y,,,,,0,29,29,6,650.741099750041,,,,,,,,,,,,,,,,,,,,,,650.7183075409848,650.741099750041,650.741099750041,657.7172806659946,657.7304757080274,658.2430754579837,659.2283451659605,y,0,8.475727375014685,None,,,,,393481,001,2024-11-29_22h00.44.298,soloproject,2024.1.5,None,2024-11-29 22h00.54.512570 +0530,
/Users/mac/Desktop/0_Solo/mmcn3.jpg,,0.05,n,,,,,0,30,30,78,659.2559496249305,,,,,,,,,,,,,,,,,,,,,,659.229421832948,659.2559496249305,659.2559496249305,666.2260062500136,666.2481925829779,666.2643335829489,668.2450333329616,n,0,8.98283520899713,None,,,,,393481,001,2024-11-29_22h00.44.298,soloproject,2024.1.5,None,2024-11-29 22h00.54.512570 +0530,
/Users/mac/Desktop/0_Solo/landscapebw6.jpg,,0.05,y,,,,,0,31,31,39,668.2591770830331,,,,,,,,,,,,,,,,,,,,,,668.24567741598,668.2591770830331,668.2591770830331,675.242922666017,675.2492154579377,675.2819078749744,676.5839833329665,y,0,8.320461458992213,None,,,,,393481,001,2024-11-29_22h00.44.298,soloproject,2024.1.5,None,2024-11-29 22h00.54.512570 +0530,
/Users/mac/Desktop/0_Solo/flowerc1.jpg,,0.8,y,,,,,0,32,32,58,676.670624832972,,,,,,,,,,,,,,,,,,,,,,676.5853605410084,676.670624832972,676.670624832972,683.5852345409803,683.6648142079357,684.3826599159511,684.5795084160054,y,0,7.904500540927984,None,,,,,393481,001,2024-11-29_22h00.44.298,soloproject,2024.1.5,None,2024-11-29 22h00.54.512570 +0530,
/Users/mac/Desktop/0_Solo/landscapebw4.jpg,,0.4,y,,,,,0,33,33,3,684.6099241250195,,,,,,,,,,,,,,,,,,,,,,684.5803506249795,684.6099241250195,684.6099241250195,691.5766704579582,691.5994076250354,691.965774082928,692.6965513749747,n,0,8.081599208060652,None,,,,,393481,001,2024-11-29_22h00.44.298,soloproject,2024.1.5,None,2024-11-29 22h00.54.512570 +0530,
/Users/mac/Desktop/0_Solo/flowercn2.jpg,,1.067,n,,,,,0,34,34,15,692.7428145000013,,,,,,,,,,,,,,,,,,,,,,692.6974759580335,692.7428145000013,692.7428145000013,699.693279500003,699.7325356659712,,700.4961718750419,n,0,7.748869457980618,None,,,,,393481,001,2024-11-29_22h00.44.298,soloproject,2024.1.5,None,2024-11-29 22h00.54.512570 +0530,
/Users/mac/Desktop/0_Solo/mmcn5.jpg,,0.4,n,,,,,0,35,35,52,700.5247615829576,,,,,,,,,,,,,,,,,,,,,,700.4976442080224,700.5247615829576,700.5247615829576,707.4939463329501,707.5152339580236,707.8828533749329,708.513493416016,y,0,7.978929833974689,None,,,,,393481,001,2024-11-29_22h00.44.298,soloproject,2024.1.5,None,2024-11-29 22h00.54.512570 +0530,
/Users/mac/Desktop/0_Solo/landscapecn2.jpg,,0.4,n,,,,,0,36,36,25,708.5820856660139,,,,,,,,,,,,,,,,,,,,,,708.5144025409827,708.5820856660139,708.5820856660139,715.5101715000346,715.5777284159558,715.8995934999548,717.2968690409325,n,0,8.70541295898147,None,,,,,393481,001,2024-11-29_22h00.44.298,soloproject,2024.1.5,None,2024-11-29 22h00.54.512570 +0530,
/Users/mac/Desktop/0_Solo/flowerbw4.jpg,,0.8,y,,,,,0,37,37,23,717.334879333037,,,,,,,,,,,,,,,,,,,,,,717.2980217499426,717.334879333037,717.334879333037,724.293455875013,724.3283299999312,725.0834338329732,726.5036024579313,y,0,9.165754666901194,None,,,,,393481,001,2024-11-29_22h00.44.298,soloproject,2024.1.5,None,2024-11-29 22h00.54.512570 +0530,
/Users/mac/Desktop/0_Solo/rockc6.jpg,,0.4,y,,,,,0,38,38,67,726.5361842080019,,,,,,,,,,,,,,,,,,,,,,726.5050836659502,726.5361842080019,726.5361842080019,733.5024197079474,733.5338081659283,733.900284665986,734.4306517499499,y,0,7.884624083060771,None,,,,,393481,001,2024-11-29_22h00.44.298,soloproject,2024.1.5,None,2024-11-29 22h00.54.512570 +0530,
/Users/mac/Desktop/0_Solo/flowerbw6.jpg,,1.067,y,,,,,0,39,39,87,734.4947086659959,,,,,,,,,,,,,,,,,,,,,,734.4317278750241,734.4947086659959,734.4947086659959,741.4282075000228,741.4834776659263,,742.4326598750195,y,0,7.934399874997325,None,,,,,393481,001,2024-11-29_22h00.44.298,soloproject,2024.1.5,None,2024-11-29 22h00.54.512570 +0530,
/Users/mac/Desktop/0_Solo/flowercn1.jpg,,0.8,n,,,,,0,40,40,71,742.4524752909783,,,,,,,,,,,,,,,,,,,,,,742.4336331660161,742.4524752909783,742.4524752909783,749.4278225000016,749.4505114159547,750.2181624580408,750.3717698749388,n,0,7.916737915948033,None,,,,,393481,001,2024-11-29_22h00.44.298,soloproject,2024.1.5,None,2024-11-29 22h00.54.512570 +0530,
/Users/mac/Desktop/0_Solo/flowercn5.jpg,,1.067,n,,,,,0,41,41,21,750.3954265830107,,,,,,,,,,,,,,,,,,,,,,750.3726063750219,750.3954265830107,750.3954265830107,757.3701561660273,757.3846195000224,,758.0480476249941,n,0,7.646709082997404,None,,,,,393481,001,2024-11-29_22h00.44.298,soloproject,2024.1.5,None,2024-11-29 22h00.54.512570 +0530,
/Users/mac/Desktop/0_Solo/mmc4.jpg,,0.533,y,,,,,0,42,42,85,758.0737630829681,,,,,,,,,,,,,,,,,,,,,,758.0490173329599,758.0737630829681,758.0737630829681,765.045833125012,765.0679252910195,765.5676341250073,766.0148140409729,y,0,7.930464457953349,None,,,,,393481,001,2024-11-29_22h00.44.298,soloproject,2024.1.5,None,2024-11-29 22h00.54.512570 +0530,
/Users/mac/Desktop/0_Solo/rockcn3.jpg,,0.2,n,,,,,0,43,43,59,766.0366500000237,,,,,,,,,,,,,,,,,,,,,,766.0158793330193,766.0366500000237,766.0366500000237,773.0119750000304,773.0296335410094,773.2020063330419,774.0218506249366,n,0,7.978406208916567,None,,,,,393481,001,2024-11-29_22h00.44.298,soloproject,2024.1.5,None,2024-11-29 22h00.54.512570 +0530,
/Users/mac/Desktop/0_Solo/rockcn6.jpg,,0.8,n,,,,,0,44,44,74,774.0403957909439,,,,,,,,,,,,,,,,,,,,,,774.0228762499755,774.0403957909439,774.0403957909439,781.0212831250392,781.0335765830241,781.8185780829517,782.6987523749704,y,0,8.651629041996785,None,,,,,393481,001,2024-11-29_22h00.44.298,soloproject,2024.1.5,None,2024-11-29 22h00.54.512570 +0530,
/Users/mac/Desktop/0_Solo/rockbw4.jpg,,1.067,y,,,,,0,45,45,51,782.7409331250237,,,,,,,,,,,,,,,,,,,,,,782.699616790982,782.7409331250237,782.7409331250237,789.6962323329644,789.7352023749845,790.7523311659461,790.8542372080265,y,0,8.108681999961846,None,,,,,393481,001,2024-11-29_22h00.44.298,soloproject,2024.1.5,None,2024-11-29 22h00.54.512570 +0530,
/Users/mac/Desktop/0_Solo/mmbw5.jpg,,0.533,y,,,,,0,46,46,92,790.8782659579301,,,,,,,,,,,,,,,,,,,,,,790.8550713330042,790.8782659579301,790.8782659579301,797.8545959159965,797.8678964159917,798.3858980829827,799.382587332977,n,0,8.498142833006568,None,,,,,393481,001,2024-11-29_22h00.44.298,soloproject,2024.1.5,None,2024-11-29 22h00.54.512570 +0530,
/Users/mac/Desktop/0_Solo/rockbwn5.jpg,,0.2,n,,,,,0,47,47,63,799.4055262909969,,,,,,,,,,,,,,,,,,,,,,799.3834633750375,799.4055262909969,799.4055262909969,806.3800239579286,806.4028877909295,806.5691969159525,807.072347749956,y,0,7.663496499997564,None,,,,,393481,001,2024-11-29_22h00.44.298,soloproject,2024.1.5,None,2024-11-29 22h00.54.512570 +0530,
/Users/mac/Desktop/0_Solo/flowerbwn1.jpg,,0.533,n,,,,,0,48,48,54,807.0943327079294,,,,,,,,,,,,,,,,,,,,,,807.0734073750209,807.0943327079294,807.0943327079294,814.071817665943,814.0854754999746,814.5977205409436,814.9828434159281,y,0,7.878601667005569,None,,,,,393481,001,2024-11-29_22h00.44.298,soloproject,2024.1.5,None,2024-11-29 22h00.54.512570 +0530,
/Users/mac/Desktop/0_Solo/mmbwn3.jpg,,0.2,n,,,,,0,49,49,66,815.007982457988,,,,,,,,,,,,,,,,,,,,,,814.9839248750359,815.007982457988,815.007982457988,821.9800343329553,822.0030805410352,822.1691674999893,822.8396442499943,n,0,7.8252115830546245,None,,,,,393481,001,2024-11-29_22h00.44.298,soloproject,2024.1.5,None,2024-11-29 22h00.54.512570 +0530,
/Users/mac/Desktop/0_Solo/mmbw4.jpg,,0.2,y,,,,,0,50,50,32,822.8639329159632,,,,,,,,,,,,,,,,,,,,,,822.8404907500371,822.8639329159632,822.8639329159632,829.8391488329507,829.8523983330233,830.0311475830385,830.6223108749837,y,0,7.753356667002663,None,,,,,393481,001,2024-11-29_22h00.44.298,soloproject,2024.1.5,None,2024-11-29 22h00.54.512570 +0530,
/Users/mac/Desktop/0_Solo/rockc1.jpg,,0.8,y,,,,,0,51,51,47,830.6461652079597,,,,,,,,,,,,,,,,,,,,,,830.6233725829516,830.6461652079597,830.6461652079597,837.622159749968,837.6367022499908,838.4150186249753,838.4337978329277,y,0,7.77736295806244,None,,,,,393481,001,2024-11-29_22h00.44.298,soloproject,2024.1.5,None,2024-11-29 22h00.54.512570 +0530,
/Users/mac/Desktop/0_Solo/rockbwn3.jpg,,0.4,n,,,,,0,52,52,77,838.4566546250135,,,,,,,,,,,,,,,,,,,,,,838.4348420000169,838.4566546250135,838.4566546250135,845.4312642499572,845.4531575409928,845.8205679999664,846.639999832958,n,0,8.178989707957953,None,,,,,393481,001,2024-11-29_22h00.44.298,soloproject,2024.1.5,None,2024-11-29 22h00.54.512570 +0530,
/Users/mac/Desktop/0_Solo/flowerbwn6.jpg,,0.05,n,,,,,0,53,53,57,846.6648071249947,,,,,,,,,,,,,,,,,,,,,,846.6408521659905,846.6648071249947,846.6648071249947,853.640150540974,853.6525761249941,853.6869220830267,854.3565839999355,y,0,7.6856569580268115,None,,,,,393481,001,2024-11-29_22h00.44.298,soloproject,2024.1.5,None,2024-11-29 22h00.54.512570 +0530,
/Users/mac/Desktop/0_Solo/mmc3.jpg,,1.067,y,,,,,0,54,54,56,854.3820797499502,,,,,,,,,,,,,,,,,,,,,,854.3577183749294,854.3820797499502,854.3820797499502,861.3569785830332,861.3823060409632,,862.3841722499346,y,0,7.992389708058909,None,,,,,393481,001,2024-11-29_22h00.44.298,soloproject,2024.1.5,None,2024-11-29 22h00.54.512570 +0530,
/Users/mac/Desktop/0_Solo/flowerc2.jpg,,1.067,y,,,,,0,55,55,76,862.4299531249562,,,,,,,,,,,,,,,,,,,,,,862.385101874941,862.4299531249562,862.4299531249562,869.3819627499906,869.4210714580258,,870.1738012080314,y,0,7.740969500038773,None,,,,,393481,001,2024-11-29_22h00.44.298,soloproject,2024.1.5,None,2024-11-29 22h00.54.512570 +0530,
/Users/mac/Desktop/0_Solo/mmbw6.jpg,,0.4,y,,,,,0,56,56,38,870.1993664579932,,,,,,,,,,,,,,,,,,,,,,870.1746356659569,870.1993664579932,870.1993664579932,877.1729138329392,877.1875490000239,877.5662107079988,878.3018906660145,y,0,8.09632941603195,None,,,,,393481,001,2024-11-29_22h00.44.298,soloproject,2024.1.5,None,2024-11-29 22h00.54.512570 +0530,
/Users/mac/Desktop/0_Solo/flowerc6.jpg,,0.05,y,,,,,0,57,57,26,878.3740994579857,,,,,,,,,,,,,,,,,,,,,,878.3034750829684,878.3740994579857,878.3740994579857,885.2983348330017,885.3710451659281,885.3386747910408,885.9564369999571,n,0,7.578095708973706,None,,,,,393481,001,2024-11-29_22h00.44.298,soloproject,2024.1.5,None,2024-11-29 22h00.54.512570 +0530,
/Users/mac/Desktop/0_Solo/landscapebwn5.jpg,,1.067,n,,,,,0,58,58,9,886.0016429999378,,,,,,,,,,,,,,,,,,,,,,885.9572837080341,886.0016429999378,886.0016429999378,892.9492807500064,892.9999012500048,,893.3099385410314,y,0,7.3020469170296565,None,,,,,393481,001,2024-11-29_22h00.44.298,soloproject,2024.1.5,None,2024-11-29 22h00.54.512570 +0530,
/Users/mac/Desktop/0_Solo/rockcn1.jpg,,0.533,n,,,,,0,59,59,22,893.3377899159677,,,,,,,,,,,,,,,,,,,,,,893.311246749945,893.3377899159677,893.3377899159677,900.3073262079852,900.3335572499782,900.8335273329867,901.5873936660355,n,0,8.236178083112463,None,,,,,393481,001,2024-11-29_22h00.44.298,soloproject,2024.1.5,None,2024-11-29 22h00.54.512570 +0530,
/Users/mac/Desktop/0_Solo/landscapec2.jpg,,0.2,y,,,,,0,60,60,20,901.648011415964,,,,,,,,,,,,,,,,,,,,,,901.5882249579299,901.648011415964,901.648011415964,908.5864191659493,908.6391796249663,908.7837664999533,909.3402542079566,y,0,7.686713459086604,None,,,,,393481,001,2024-11-29_22h00.44.298,soloproject,2024.1.5,None,2024-11-29 22h00.54.512570 +0530,
/Users/mac/Desktop/0_Solo/flowercn4.jpg,,0.8,n,,,,,0,61,61,64,909.3775306249736,,,,,,,,,,,,,,,,,,,,,,909.3416784580331,909.3775306249736,909.3775306249736,916.333366625011,916.3722399999388,917.122165165958,917.5410751659656,n,0,8.158979958039708,None,,,,,393481,001,2024-11-29_22h00.44.298,soloproject,2024.1.5,None,2024-11-29 22h00.54.512570 +0530,
/Users/mac/Desktop/0_Solo/landscapebw1.jpg,,0.4,y,,,,,0,62,62,31,917.5644196659559,,,,,,,,,,,,,,,,,,,,,,917.5419164999621,917.5644196659559,917.5644196659559,924.5411038750317,924.555659082951,924.9341828329489,925.575405624928,y,0,8.004691083915532,None,,,,,393481,001,2024-11-29_22h00.44.298,soloproject,2024.1.5,None,2024-11-29 22h00.54.512570 +0530,
/Users/mac/Desktop/0_Solo/landscapebwn1.jpg,,0.05,n,,,,,0,63,63,10,925.6147338750307,,,,,,,,,,,,,,,,,,,,,,925.5762269999832,925.6147338750307,925.6147338750307,932.5761642910074,932.606721875025,932.6226444579661,938.203847332974,y,0,12.580724166007712,None,,,,,393481,001,2024-11-29_22h00.44.298,soloproject,2024.1.5,None,2024-11-29 22h00.54.512570 +0530,
/Users/mac/Desktop/0_Solo/mmbwn6.jpg,,0.05,n,,,,,0,64,64,93,938.2316725410055,,,,,,,,,,,,,,,,,,,,,,938.2050598750357,938.2316725410055,938.2316725410055,945.2008406659588,945.2233493330423,945.2393799159909,945.9711027910234,n,0,7.733509166981094,None,,,,,393481,001,2024-11-29_22h00.44.298,soloproject,2024.1.5,None,2024-11-29 22h00.54.512570 +0530,
/Users/mac/Desktop/0_Solo/flowerbwn5.jpg,,0.4,n,,,,,0,65,65,44,945.9884508330142,,,,,,,,,,,,,,,,,,,,,,945.9722829579841,945.9884508330142,945.9884508330142,952.9680072079645,952.9847000830341,953.3567657499807,954.642776374938,n,0,8.651353167020716,None,,,,,393481,001,2024-11-29_22h00.44.298,soloproject,2024.1.5,None,2024-11-29 22h00.54.512570 +0530,
/Users/mac/Desktop/0_Solo/flowerbw3.jpg,,0.05,y,,,,,0,66,66,70,954.7084412080003,,,,,,,,,,,,,,,,,,,,,,954.6436071250355,954.7084412080003,954.7084412080003,961.6439222909976,961.7018772499869,961.6908800830133,962.4603783329949,y,0,7.7483046249253675,None,,,,,393481,001,2024-11-29_22h00.44.298,soloproject,2024.1.5,None,2024-11-29 22h00.54.512570 +0530,
/Users/mac/Desktop/0_Solo/rockbwn6.jpg,,0.8,n,,,,,0,67,67,16,962.4876534159994,,,,,,,,,,,,,,,,,,,,,,962.4614692080067,962.4876534159994,962.4876534159994,969.4607538749697,969.485479749972,970.2575480829692,970.2781864160206,n,0,7.783008083002642,None,,,,,393481,001,2024-11-29_22h00.44.298,soloproject,2024.1.5,None,2024-11-29 22h00.54.512570 +0530,
/Users/mac/Desktop/0_Solo/mmbwn1.jpg,,0.2,n,,,,,0,68,68,14,970.3031946249539,,,,,,,,,,,,,,,,,,,,,,970.279719291022,970.3031946249539,970.3031946249539,977.2773306659656,977.3024022079771,977.4742887079483,978.3267771659885,n,0,8.0173914169427,None,,,,,393481,001,2024-11-29_22h00.44.298,soloproject,2024.1.5,None,2024-11-29 22h00.54.512570 +0530,
/Users/mac/Desktop/0_Solo/flowerc3.jpg,,1.067,y,,,,,0,69,69,1,978.4004045829643,,,,,,,,,,,,,,,,,,,,,,978.327901624958,978.4004045829643,978.4004045829643,,,,983.1775077909697,y,0,4.774384499993175,None,,,,,393481,001,2024-11-29_22h00.44.298,soloproject,2024.1.5,None,2024-11-29 22h00.54.512570 +0530,
/Users/mac/Desktop/0_Solo/flowerbw2.jpg,,0.05,y,,,,,0,70,70,34,983.2193625409855,,,,,,,,,,,,,,,,,,,,,,983.1783722910332,983.2193625409855,983.2193625409855,990.177659375011,990.2087266659364,990.2247948750155,991.2770673329942,y,0,8.053615833050571,None,,,,,393481,001,2024-11-29_22h00.44.298,soloproject,2024.1.5,None,2024-11-29 22h00.54.512570 +0530,
/Users/mac/Desktop/0_Solo/landscapecn4.jpg,,0.533,n,,,,,0,71,71,41,991.3032714999281,,,,,,,,,,,,,,,,,,,,,,991.2779439579463,991.3032714999281,991.3032714999281,998.2769769160077,998.2913123329636,998.8030957080191,998.9720687499503,y,0,7.657482875045389,None,,,,,393481,001,2024-11-29_22h00.44.298,soloproject,2024.1.5,None,2024-11-29 22h00.54.512570 +0530,
/Users/mac/Desktop/0_Solo/rockbw5.jpg,,0.533,y,,,,,0,72,72,68,998.9980192079674,,,,,,,,,,,,,,,,,,,,,,998.9734214160126,998.9980192079674,998.9980192079674,1005.9692768750247,1005.9919187079649,1006.4916171659715,1007.8729375000112,n,0,8.869451125035994,None,,,,,393481,001,2024-11-29_22h00.44.298,soloproject,2024.1.5,None,2024-11-29 22h00.54.512570 +0530,
/Users/mac/Desktop/0_Solo/flowercn6.jpg,,0.8,n,,,,,0,73,73,49,1007.8982432909543,,,,,,,,,,,,,,,,,,,,,,1007.8739194159862,1007.8982432909543,1007.8982432909543,1014.8691852079937,1014.8917154580122,,1015.3616727499757,y,0,7.458196374936961,None,,,,,393481,001,2024-11-29_22h00.44.298,soloproject,2024.1.5,None,2024-11-29 22h00.54.512570 +0530,
/Users/mac/Desktop/0_Solo/landscapebwn6.jpg,,0.4,n,,,,,0,74,74,95,1015.413149290951,,,,,,,,,,,,,,,,,,,,,,1015.3630823750282,1015.413149290951,1015.413149290951,1022.361365083023,1022.4088834159775,1022.7598524159985,1023.062020790996,n,0,7.645529333036393,None,,,,,393481,001,2024-11-29_22h00.44.298,soloproject,2024.1.5,None,2024-11-29 22h00.54.512570 +0530,
/Users/mac/Desktop/0_Solo/flowerbw1.jpg,,0.533,y,,,,,0,75,75,72,1023.1039572500158,,,,,,,,,,,,,,,,,,,,,,1023.0628223749809,1023.1039572500158,1023.1039572500158,1030.06212245801,1030.09391091601,1030.5925112080295,1030.7073258749442,y,0,7.596845165942796,None,,,,,393481,001,2024-11-29_22h00.44.298,soloproject,2024.1.5,None,2024-11-29 22h00.54.512570 +0530,
/Users/mac/Desktop/0_Solo/mmc5.jpg,,0.8,y,,,,,0,76,76,8,1030.7330173329683,,,,,,,,,,,,,,,,,,,,,,1030.7085241249297,1030.7330173329683,1030.7330173329683,1037.703472333029,1037.7261305829743,1038.4926302910317,1038.9653349160217,y,0,8.221353665925562,None,,,,,393481,001,2024-11-29_22h00.44.298,soloproject,2024.1.5,None,2024-11-29 22h00.54.512570 +0530,
/Users/mac/Desktop/0_Solo/flowerbwn4.jpg,,0.2,n,,,,,0,77,77,84,1038.9831072080415,,,,,,,,,,,,,,,,,,,,,,1038.9663620829815,1038.9831072080415,1038.9831072080415,1045.9626700000372,1045.9759191250196,1046.1595577909611,1046.9133451660164,y,0,7.927169500035234,None,,,,,393481,001,2024-11-29_22h00.44.298,soloproject,2024.1.5,None,2024-11-29 22h00.54.512570 +0530,
/Users/mac/Desktop/0_Solo/rockc2.jpg,,0.2,y,,,,,0,78,78,45,1047.1869966250379,,,,,,,,,,,,,,,,,,,,,,1046.9141832080204,1047.1869966250379,1047.1869966250379,1053.9321196250385,1054.1756857079454,1054.1257667499594,1054.6483056249563,n,0,7.455349583062343,None,,,,,393481,001,2024-11-29_22h00.44.298,soloproject,2024.1.5,None,2024-11-29 22h00.54.512570 +0530,
/Users/mac/Desktop/0_Solo/mmc6.jpg,,0.533,y,,,,,0,79,79,27,1054.7037301659584,,,,,,,,,,,,,,,,,,,,,,1054.6501355000073,1054.7037301659584,1054.7037301659584,1061.645922124968,1061.693820332992,1062.1765827080235,1062.428583333036,y,0,7.721423167036846,None,,,,,393481,001,2024-11-29_22h00.44.298,soloproject,2024.1.5,None,2024-11-29 22h00.54.512570 +0530,
/Users/mac/Desktop/0_Solo/landscapecn1.jpg,,0.8,n,,,,,0,80,80,30,1062.4905074159615,,,,,,,,,,,,,,,,,,,,,,1062.429399000015,1062.4905074159615,1062.4905074159615,1069.4304272499867,1069.488325000042,1070.2272761249915,1070.6468104160158,n,0,8.153492624987848,None,,,,,393481,001,2024-11-29_22h00.44.298,soloproject,2024.1.5,None,2024-11-29 22h00.54.512570 +0530,
/Users/mac/Desktop/0_Solo/mmbwn5.jpg,,0.8,n,,,,,0,81,81,37,1070.6731664999388,,,,,,,,,,,,,,,,,,,,,,1070.6477017499274,1070.6731664999388,1070.6731664999388,1077.6465005410137,1077.6720139579847,1078.4434360830346,1078.5408108329866,y,0,7.8558945410186425,None,,,,,393481,001,2024-11-29_22h00.44.298,soloproject,2024.1.5,None,2024-11-29 22h00.54.512570 +0530,
/Users/mac/Desktop/0_Solo/landscapebwn3.jpg,,0.533,n,,,,,0,82,82,48,1078.573940415983,,,,,,,,,,,,,,,,,,,,,,1078.5418307909276,1078.573940415983,1078.573940415983,1085.5382512910292,1085.5721611659974,1086.0604199999943,1087.3086559160147,n,0,8.725297292112373,None,,,,,393481,001,2024-11-29_22h00.44.298,soloproject,2024.1.5,None,2024-11-29 22h00.54.512570 +0530,
/Users/mac/Desktop/0_Solo/mmcn1.jpg,,0.05,n,,,,,0,83,83,13,1087.335501707974,,,,,,,,,,,,,,,,,,,,,,1087.3096926249564,1087.335501707974,1087.335501707974,1094.3051154999994,1094.3281576249283,1094.3439787080279,1095.298399791005,n,0,7.9584147919667885,None,,,,,393481,001,2024-11-29_22h00.44.298,soloproject,2024.1.5,None,2024-11-29 22h00.54.512570 +0530,
/Users/mac/Desktop/0_Solo/rockbw1.jpg,,0.05,y,,,,,0,84,84,42,1095.3397554160329,,,,,,,,,,,,,,,,,,,,,,1095.2994879159378,1095.3397554160329,1095.3397554160329,1102.2971251659328,1102.3284559999593,1102.344048082945,1103.008365583024,y,0,7.6576355419820175,None,,,,,393481,001,2024-11-29_22h00.44.298,soloproject,2024.1.5,None,2024-11-29 22h00.54.512570 +0530,
/Users/mac/Desktop/0_Solo/landscapec4.jpg,,0.533,y,,,,,0,85,85,79,1103.033825499937,,,,,,,,,,,,,,,,,,,,,,1103.0094428330194,1103.033825499937,1103.033825499937,1110.0056289159693,1110.028339624987,1110.5286449999548,1110.6149041659664,y,0,7.574907541042194,None,,,,,393481,001,2024-11-29_22h00.44.298,soloproject,2024.1.5,None,2024-11-29 22h00.54.512570 +0530,
/Users/mac/Desktop/0_Solo/landscapec6.jpg,,0.2,y,,,,,0,86,86,36,1110.6369841659907,,,,,,,,,,,,,,,,,,,,,,1110.6158860409632,1110.6369841659907,1110.6369841659907,1117.61457062501,1117.627490749932,1117.8117033329327,1118.4767996659502,y,0,7.8262576250126585,None,,,,,393481,001,2024-11-29_22h00.44.298,soloproject,2024.1.5,None,2024-11-29 22h00.54.512570 +0530,
/Users/mac/Desktop/0_Solo/landscapebw2.jpg,,0.4,y,,,,,0,87,87,19,1118.4965338329785,,,,,,,,,,,,,,,,,,,,,,1118.4776313749608,1118.4965338329785,1118.4965338329785,1125.47226416599,1125.4900255409302,1125.8618651659926,1126.09720608301,y,0,7.5951102919643745,None,,,,,393481,001,2024-11-29_22h00.44.298,soloproject,2024.1.5,None,2024-11-29 22h00.54.512570 +0530,
/Users/mac/Desktop/0_Solo/rockc5.jpg,,1.067,y,,,,,0,88,88,33,1126.1912992909783,,,,,,,,,,,,,,,,,,,,,,1126.0982379580382,1126.1912992909783,1126.1912992909783,1133.0993816249538,1133.190293374937,,1133.7596949159633,y,0,7.56580545892939,None,,,,,393481,001,2024-11-29_22h00.44.298,soloproject,2024.1.5,None,2024-11-29 22h00.54.512570 +0530,
/Users/mac/Desktop/0_Solo/landscapebw5.jpg,,0.2,y,,,,,0,89,89,75,1133.7883584579686,,,,,,,,,,,,,,,,,,,,,,1133.7606819579378,1133.7883584579686,1133.7883584579686,1140.7566537909443,1140.7790710410336,1140.94652429095,1141.5928398329997,y,0,7.7926043750485405,None,,,,,393481,001,2024-11-29_22h00.44.298,soloproject,2024.1.5,None,2024-11-29 22h00.54.512570 +0530,
/Users/mac/Desktop/0_Solo/landscapebwn4.jpg,,0.4,n,,,,,0,90,90,11,1141.6363632499706,,,,,,,,,,,,,,,,,,,,,,1141.59390470793,1141.6363632499706,1141.6363632499706,1148.5900655830046,1148.6297135410132,1148.9798710829346,1149.2761813329998,y,0,7.630691999918781,None,,,,,393481,001,2024-11-29_22h00.44.298,soloproject,2024.1.5,None,2024-11-29 22h00.54.512570 +0530,
/Users/mac/Desktop/0_Solo/rockbw3.jpg,,0.533,y,,,,,0,91,91,60,1149.327809624956,,,,,,,,,,,,,,,,,,,,,,1149.277234582929,1149.327809624956,1149.327809624956,1156.2737346659414,1156.3243083329871,1156.796938540996,1156.959455040982,y,0,7.625256708008237,None,,,,,393481,001,2024-11-29_22h00.44.298,soloproject,2024.1.5,None,2024-11-29 22h00.54.512570 +0530,
/Users/mac/Desktop/0_Solo/landscapec5.jpg,,0.4,y,,,,,0,92,92,89,1156.9831487500342,,,,,,,,,,,,,,,,,,,,,,1156.9603736249264,1156.9831487500342,1156.9831487500342,1163.957237415947,1163.9785756659694,1164.3457873750012,1164.6106175000314,y,0,7.617229041992687,None,,,,,393481,001,2024-11-29_22h00.44.298,soloproject,2024.1.5,None,2024-11-29 22h00.54.512570 +0530,
/Users/mac/Desktop/0_Solo/rockbwn4.jpg,,0.2,n,,,,,0,93,93,53,1164.6347224999918,,,,,,,,,,,,,,,,,,,,,,1164.6120898330119,1164.6347224999918,1164.6347224999918,1171.6075085829943,1171.6292217909358,1171.7966713330243,1172.7932907079812,n,0,8.15189391700551,None,,,,,393481,001,2024-11-29_22h00.44.298,soloproject,2024.1.5,None,2024-11-29 22h00.54.512570 +0530,
/Users/mac/Desktop/0_Solo/rockbwn1.jpg,,0.533,n,,,,,0,94,94,35,1172.8142982909922,,,,,,,,,,,,,,,,,,,,,,1172.7941346250009,1172.8142982909922,1172.8142982909922,1179.7910494159441,1179.8079498750158,,1180.2999057499692,y,0,7.478222583071329,None,,,,,393481,001,2024-11-29_22h00.44.298,soloproject,2024.1.5,None,2024-11-29 22h00.54.512570 +0530,
/Users/mac/Desktop/0_Solo/mmcn6.jpg,,0.05,n,,,,,0,95,95,88,1180.321942874929,,,,,,,,,,,,,,,,,,,,,,1180.3007894159527,1180.321942874929,1180.321942874929,1187.2998969160253,1187.313017749926,1187.3465530829271,1187.82693766593,n,0,7.497950250050053,None,,,,,393481,001,2024-11-29_22h00.44.298,soloproject,2024.1.5,None,2024-11-29 22h00.54.512570 +0530,
,,,,,,,,,,,,,,,,,,,,,,,,,,,,,,,,,,,,,,,,,,,,,1187.827568290988,1187.8419117500307,1188.3299099579453,1188.325602915953,393481,001,2024-11-29_22h00.44.298,soloproject,2024.1.5,None,2024-11-29 22h00.54.512570 +0530,
