study_word,test_word,reference,old_new,trials.thisRepN,trials.thisTrialN,trials.thisN,trials.thisIndex,trials_2.thisRepN,trials_2.thisTrialN,trials_2.thisN,trials_2.thisIndex,thisRow.t,notes,ins.started,text_4.started,key_resp.started,ins.stopped,key_resp.keys,key_resp.rt,key_resp.duration,Phase1.started,text_5.started,Phase1.stopped,trial.started,text.started,slider.started,trial.stopped,slider.response,slider.rt,Phase_2.started,text_6.started,Phase_2.stopped,test.started,testword.started,textbox.started,submit_text.started,mouse.started,test.stopped,textbox.text,mouse.x,mouse.y,mouse.leftButton,mouse.midButton,mouse.rightButton,mouse.time,mouse.clicked_name,thanks.started,thank.started,thank.stopped,thanks.stopped,participant,session,date,expName,psychopyVersion,frameRate,expStart,
,,,,,,,,,,,,,,0.08927804199629463,0.11148137500276789,0.11148137500276789,0.767938500008313,space,0.5730663329886738,None,,,,,,,,,,,,,,,,,,,,,,,,,,,,,,,AK,001,2024-10-25_12h09.54.859,v5,2024.1.5,None,2024-10-25 12h10.24.188388 +0530,
,,,,,,,,,,,,,,,,,,,,,0.7680188750091475,0.8028294590185396,2.78077445900999,,,,,,,,,,,,,,,,,,,,,,,,,,,,AK,001,2024-10-25_12h09.54.859,v5,2024.1.5,None,2024-10-25 12h10.24.188388 +0530,
Cushion ,,,,0,0,0,1,,,,,2.9028041250130627,,,,,,,,,,,,2.8163447090191767,2.9028041250130627,2.9028041250130627,4.088024249998853,1.3688888888888888,1.2113582080055494,,,,,,,,,,,,,,,,,,,,,,AK,001,2024-10-25_12h09.54.859,v5,2024.1.5,None,2024-10-25 12h10.24.188388 +0530,
Poster,,,,0,1,1,14,,,,,4.152025542018237,,,,,,,,,,,,4.089532042009523,4.152025542018237,4.152025542018237,4.782517959014513,2.3155555555555556,0.6323665420059115,,,,,,,,,,,,,,,,,,,,,,AK,001,2024-10-25_12h09.54.859,v5,2024.1.5,None,2024-10-25 12h10.24.188388 +0530,
Board ,,,,0,2,2,4,,,,,4.849293209001189,,,,,,,,,,,,4.783147042006021,4.849293209001189,4.849293209001189,5.485976791998837,2.977777777777778,0.6404046659881715,,,,,,,,,,,,,,,,,,,,,,AK,001,2024-10-25_12h09.54.859,v5,2024.1.5,None,2024-10-25 12h10.24.188388 +0530,
Phone ,,,,0,3,3,2,,,,,5.551135167013854,,,,,,,,,,,,5.486739709012909,5.551135167013854,5.551135167013854,6.1837851669988595,1.4044444444444444,0.6357160420157015,,,,,,,,,,,,,,,,,,,,,,AK,001,2024-10-25_12h09.54.859,v5,2024.1.5,None,2024-10-25 12h10.24.188388 +0530,
Pastry,,,,0,4,4,9,,,,,6.252155666996259,,,,,,,,,,,,6.1845212090120185,6.252155666996259,6.252155666996259,6.953933709010016,3.56,0.7011642080033198,,,,,,,,,,,,,,,,,,,,,,AK,001,2024-10-25_12h09.54.859,v5,2024.1.5,None,2024-10-25 12h10.24.188388 +0530,
Laptop ,,,,0,5,5,5,,,,,7.019517459004419,,,,,,,,,,,,6.9548249170184135,7.019517459004419,7.019517459004419,7.597935209021671,2.506666666666667,0.5824375830125064,,,,,,,,,,,,,,,,,,,,,,AK,001,2024-10-25_12h09.54.859,v5,2024.1.5,None,2024-10-25 12h10.24.188388 +0530,
mouse,,,,0,6,6,8,,,,,7.6662375000014435,,,,,,,,,,,,7.598774875019444,7.6662375000014435,7.6662375000014435,8.569122709013755,1,0.9251372500148136,,,,,,,,,,,,,,,,,,,,,,AK,001,2024-10-25_12h09.54.859,v5,2024.1.5,None,2024-10-25 12h10.24.188388 +0530,
Keys,,,,0,7,7,13,,,,,8.599655333993724,,,,,,,,,,,,8.56956887501292,8.599655333993724,8.599655333993724,9.157447250006953,1.3066666666666666,0.5443401669908781,,,,,,,,,,,,,,,,,,,,,,AK,001,2024-10-25_12h09.54.859,v5,2024.1.5,None,2024-10-25 12h10.24.188388 +0530,
Police,,,,0,8,8,12,,,,,9.20844658400165,,,,,,,,,,,,9.158213334012544,9.20844658400165,9.20844658400165,9.771808000019519,2.466666666666667,0.5564496250008233,,,,,,,,,,,,,,,,,,,,,,AK,001,2024-10-25_12h09.54.859,v5,2024.1.5,None,2024-10-25 12h10.24.188388 +0530,
T-shirt,,,,0,9,9,7,,,,,9.827688084013062,,,,,,,,,,,,9.772458709019702,9.827688084013062,9.827688084013062,10.473598375014262,3.48,0.6437349580228329,,,,,,,,,,,,,,,,,,,,,,AK,001,2024-10-25_12h09.54.859,v5,2024.1.5,None,2024-10-25 12h10.24.188388 +0530,
Cruise,,,,0,10,10,11,,,,,10.524241834005807,,,,,,,,,,,,10.474377959006233,10.524241834005807,10.524241834005807,11.0635577920184,4.031111111111111,0.5392922920000274,,,,,,,,,,,,,,,,,,,,,,AK,001,2024-10-25_12h09.54.859,v5,2024.1.5,None,2024-10-25 12h10.24.188388 +0530,
Book ,,,,0,11,11,0,,,,,11.122337917011464,,,,,,,,,,,,11.064329750020988,11.122337917011464,11.122337917011464,11.683318459021393,2.671111111111111,0.5672790840035304,,,,,,,,,,,,,,,,,,,,,,AK,001,2024-10-25_12h09.54.859,v5,2024.1.5,None,2024-10-25 12h10.24.188388 +0530,
Chart,,,,0,12,12,6,,,,,11.739816292014439,,,,,,,,,,,,11.683977292006603,11.739816292014439,11.739816292014439,12.242435417021625,3.591111111111111,0.5186671249975916,,,,,,,,,,,,,,,,,,,,,,AK,001,2024-10-25_12h09.54.859,v5,2024.1.5,None,2024-10-25 12h10.24.188388 +0530,
Marble ,,,,0,13,13,3,,,,,12.281457459001103,,,,,,,,,,,,12.242876375006745,12.281457459001103,12.281457459001103,13.617943167017074,1.0933333333333333,1.343911958974786,,,,,,,,,,,,,,,,,,,,,,AK,001,2024-10-25_12h09.54.859,v5,2024.1.5,None,2024-10-25 12h10.24.188388 +0530,
Case,,,,0,14,14,10,,,,,13.652400834020227,,,,,,,,,,,,13.618347250012448,13.652400834020227,13.652400834020227,14.552710792020662,4.484444444444445,0.8900340420077555,,,,,,,,,,,,,,,,,,,,,,AK,001,2024-10-25_12h09.54.859,v5,2024.1.5,None,2024-10-25 12h10.24.188388 +0530,
,,,,,,,,,,,,,,,,,,,,,,,,,,,,,,14.553221000009216,14.566222209017724,16.553848125011427,,,,,,,,,,,,,,,,,,,AK,001,2024-10-25_12h09.54.859,v5,2024.1.5,None,2024-10-25 12h10.24.188388 +0530,
,p_nc_l,pencil,new,,,,,0,0,0,16,16.606558625004254,,,,,,,,,,,,,,,,,,,,,16.564729875011835,16.606558625004254,16.606558625004254,16.606558625004254,0.020746916998177767,23.658248624997213,pincal,[0.09666666666666666],[-0.29888888888888887],[1],[0],[0],[7.08317533301306],['submit_text'],,,,,AK,001,2024-10-25_12h09.54.859,v5,2024.1.5,None,2024-10-25 12h10.24.188388 +0530,
,_ha_t ,chart,old,,,,,0,1,1,1,23.701483250013553,,,,,,,,,,,,,,,,,,,,,23.661995208996814,23.701483250013553,23.701483250013553,23.701483250013553,0.008931832999223843,27.787840625009267,chart,[0.09666666666666666],[-0.29888888888888887],[1],[0],[0],[4.11665054099285],['submit_text'],,,,,AK,001,2024-10-25_12h09.54.859,v5,2024.1.5,None,2024-10-25 12h10.24.188388 +0530,
,K_y_ ,keys,old,,,,,0,2,2,8,27.82092366699362,,,,,,,,,,,,,,,,,,,,,27.78955091701937,27.82092366699362,27.82092366699362,27.82092366699362,0.0066675829875748605,29.995111833995907,keys,[0.09666666666666666],[-0.29888888888888887],[1],[0],[0],[2.196414542006096],['submit_text'],,,,,AK,001,2024-10-25_12h09.54.859,v5,2024.1.5,None,2024-10-25 12h10.24.188388 +0530,
,ta_l_ ,table ,new,,,,,0,3,3,15,30.03729929201654,,,,,,,,,,,,,,,,,,,,,29.99713454200537,30.03729929201654,30.03729929201654,30.03729929201654,0.008426582993706688,32.669384292006725,table,[0.09666666666666666],[-0.29888888888888887],[1],[0],[0],[2.663391332986066],['submit_text'],,,,,AK,001,2024-10-25_12h09.54.859,v5,2024.1.5,None,2024-10-25 12h10.24.188388 +0530,
,_o_rd ,board,old,,,,,0,4,4,10,32.700525249994826,,,,,,,,,,,,,,,,,,,,,32.6710872919939,32.700525249994826,32.700525249994826,32.700525249994826,0.006858875014586374,34.480677542014746,board,[0.09666666666666666],[-0.29888888888888887],[1],[0],[0],[1.8026107919868082],['submit_text'],,,,,AK,001,2024-10-25_12h09.54.859,v5,2024.1.5,None,2024-10-25 12h10.24.188388 +0530,
,_ho_e,phone,old,,,,,0,5,5,12,34.50552395900013,,,,,,,,,,,,,,,,,,,,,34.48154125001747,34.50552395900013,34.50552395900013,34.50552395900013,0.00348212500102818,37.13664462501765,choose,[0.09666666666666666],[-0.29888888888888887],[1],[0],[0],[2.650849375000689],['submit_text'],,,,,AK,001,2024-10-25_12h09.54.859,v5,2024.1.5,None,2024-10-25 12h10.24.188388 +0530,
,C_s_ ,case,old,,,,,0,6,6,5,37.17944120900938,,,,,,,,,,,,,,,,,,,,,37.13841549999779,37.17944120900938,37.17944120900938,37.17944120900938,0.011310833011521026,40.302233750000596,case,[0.09666666666666666],[-0.29888888888888887],[1],[0],[0],[3.151946833997499],['submit_text'],,,,,AK,001,2024-10-25_12h09.54.859,v5,2024.1.5,None,2024-10-25 12h10.24.188388 +0530,
,_o_se ,mouse,old,,,,,0,7,7,3,40.335629542008974,,,,,,,,,,,,,,,,,,,,,40.30391879202216,40.335629542008974,40.335629542008974,40.335629542008974,0.0067668329866137356,43.231524959002854,horse,[0.09666666666666666],[-0.29888888888888887],[1],[0],[0],[2.919585541007109],['submit_text'],,,,,AK,001,2024-10-25_12h09.54.859,v5,2024.1.5,None,2024-10-25 12h10.24.188388 +0530,
,P_li_e,police,old,,,,,0,8,8,7,43.26855095900828,,,,,,,,,,,,,,,,,,,,,43.23311670901603,43.26855095900828,43.26855095900828,43.26855095900828,0.007140333007555455,45.395999416999985,police,[0.09666666666666666],[-0.29888888888888887],[1],[0],[0],[2.1538304160058033],['submit_text'],,,,,AK,001,2024-10-25_12h09.54.859,v5,2024.1.5,None,2024-10-25 12h10.24.188388 +0530,
,_r_is_ ,cruise ,old,,,,,0,9,9,6,45.44039395899745,,,,,,,,,,,,,,,,,,,,,45.398029667005176,45.44039395899745,45.44039395899745,45.44039395899745,0.010096375015564263,47.743793250003364,cruise,[0.09666666666666666],[-0.29888888888888887],[1],[0],[0],[2.3355466659995727],['submit_text'],,,,,AK,001,2024-10-25_12h09.54.859,v5,2024.1.5,None,2024-10-25 12h10.24.188388 +0530,
,c_m_ra,camera,new,,,,,0,10,10,19,47.768850417021895,,,,,,,,,,,,,,,,,,,,,47.74508745901403,47.768850417021895,47.768850417021895,47.768850417021895,0.004348832997493446,49.42051579200779,camera,[0.09666666666666666],[-0.29888888888888887],[1],[0],[0],[1.6703725419938564],['submit_text'],,,,,AK,001,2024-10-25_12h09.54.859,v5,2024.1.5,None,2024-10-25 12h10.24.188388 +0530,
,_a_tr_,pastry ,old,,,,,0,11,11,4,49.453017874999205,,,,,,,,,,,,,,,,,,,,,49.422296083997935,49.453017874999205,49.453017874999205,49.453017874999205,0.006731416011461988,53.410941667010775,pastry,[0.09666666666666666],[-0.29888888888888887],[1],[0],[0],[3.9817143330001272],['submit_text'],,,,,AK,001,2024-10-25_12h09.54.859,v5,2024.1.5,None,2024-10-25 12h10.24.188388 +0530,
,_a_bl_,marble,old,,,,,0,12,12,11,53.431963375012856,,,,,,,,,,,,,,,,,,,,,53.41180645901477,53.431963375012856,53.431963375012856,53.431963375012856,0.003926250006770715,58.15136870901915,babble,[0.09666666666666666],[-0.29888888888888887],[1],[0],[0],[4.735068291018251],['submit_text'],,,,,AK,001,2024-10-25_12h09.54.859,v5,2024.1.5,None,2024-10-25 12h10.24.188388 +0530,
,v_s_,vase ,new,,,,,0,13,13,17,58.18297804199392,,,,,,,,,,,,,,,,,,,,,58.1530883340165,58.18297804199392,58.18297804199392,58.18297804199392,0.006490457977633923,62.05430362501647,voss,[0.09666666666666666],[-0.29888888888888887],[1],[0],[0],[3.8941386659862474],['submit_text'],,,,,AK,001,2024-10-25_12h09.54.859,v5,2024.1.5,None,2024-10-25 12h10.24.188388 +0530,
,_oo_,book ,old,,,,,0,14,14,13,62.08793933401466,,,,,,,,,,,,,,,,,,,,,62.05598166701384,62.08793933401466,62.08793933401466,62.08793933401466,0.006236708024516702,66.35475179200876,book,[0.09666666666666666],[-0.29888888888888887],[1],[0],[0],[4.273567333002575],['submit_text'],,,,,AK,001,2024-10-25_12h09.54.859,v5,2024.1.5,None,2024-10-25 12h10.24.188388 +0530,
,P_st_r,poster,old,,,,,0,15,15,9,66.40075416699983,,,,,,,,,,,,,,,,,,,,,66.35846979200142,66.40075416699983,66.40075416699983,66.40075416699983,0.010391209012595937,69.13141258401447,poster,[0.09666666666666666],[-0.29888888888888887],[1],[0],[0],[2.7620740839920472],['submit_text'],,,,,AK,001,2024-10-25_12h09.54.859,v5,2024.1.5,None,2024-10-25 12h10.24.188388 +0530,
,T_hi_t ,tshirt,old,,,,,0,16,16,2,69.16863462500623,,,,,,,,,,,,,,,,,,,,,69.13321754199569,69.16863462500623,69.16863462500623,69.16863462500623,0.007110499980626628,70.91831266699592,tshirt,[0.09666666666666666],[-0.29888888888888887],[1],[0],[0],[1.7777897079940885],['submit_text'],,,,,AK,001,2024-10-25_12h09.54.859,v5,2024.1.5,None,2024-10-25 12h10.24.188388 +0530,
,l_pt_p ,laptop ,old,,,,,0,17,17,0,70.93817933401442,,,,,,,,,,,,,,,,,,,,,70.91922566702124,70.93817933401442,70.93817933401442,70.93817933401442,0.0038526669959537685,72.60697283400805,laptop,[0.09666666666666666],[-0.29888888888888887],[1],[0],[0],[1.6825140829896554],['submit_text'],,,,,AK,001,2024-10-25_12h09.54.859,v5,2024.1.5,None,2024-10-25 12h10.24.188388 +0530,
,c_s_io_,cushion,old,,,,,0,18,18,14,72.6435268339992,,,,,,,,,,,,,,,,,,,,,72.60867225000402,72.6435268339992,72.6435268339992,72.6435268339992,0.007861874997615814,74.61105279199546,cushion,[0.09666666666666666],[-0.29888888888888887],[1],[0],[0],[1.9938469170010649],['submit_text'],,,,,AK,001,2024-10-25_12h09.54.859,v5,2024.1.5,None,2024-10-25 12h10.24.188388 +0530,
,bo_t_e ,bottle ,new,,,,,0,19,19,18,74.64292912499513,,,,,,,,,,,,,,,,,,,,,74.61274179202155,74.64292912499513,74.64292912499513,74.64292912499513,0.006685917003778741,76.32433016700088,bottle,[0.09666666666666666],[-0.29888888888888887],[1],[0],[0],[1.7040067079942673],['submit_text'],,,,,AK,001,2024-10-25_12h09.54.859,v5,2024.1.5,None,2024-10-25 12h10.24.188388 +0530,
,,,,,,,,,,,,,,,,,,,,,,,,,,,,,,,,,,,,,,,,,,,,,,,76.3256300840003,76.33481912501156,76.83970741700614,76.82608070899732,AK,001,2024-10-25_12h09.54.859,v5,2024.1.5,None,2024-10-25 12h10.24.188388 +0530,
