study_word,test_word,reference,old_new,trials.thisRepN,trials.thisTrialN,trials.thisN,trials.thisIndex,trials_2.thisRepN,trials_2.thisTrialN,trials_2.thisN,trials_2.thisIndex,thisRow.t,notes,ins.started,text_4.started,key_resp.started,ins.stopped,key_resp.keys,key_resp.rt,key_resp.duration,Phase1.started,text_5.started,Phase1.stopped,trial.started,text.started,slider.started,trial.stopped,slider.response,slider.rt,Phase_2.started,text_6.started,text_6.stopped,Phase_2.stopped,test.started,testword.started,textbox.started,submit_text.started,mouse.started,test.stopped,textbox.text,mouse.x,mouse.y,mouse.leftButton,mouse.midButton,mouse.rightButton,mouse.time,mouse.clicked_name,thanks.started,thank.started,thanks.stopped,participant,session,date,expName,psychopyVersion,frameRate,expStart,
,,,,,,,,,,,,,,0.08965845900820568,0.14363050000974908,0.14363050000974908,4.681381542002782,space,4.522369500016794,None,,,,,,,,,,,,,,,,,,,,,,,,,,,,,,,AN,001,2024-10-25_12h01.13.207,v5,2024.1.5,None,2024-10-25 12h01.29.548098 +0530,
,,,,,,,,,,,,,,,,,,,,,4.681601041986141,4.757051499997033,6.685952500003623,,,,,,,,,,,,,,,,,,,,,,,,,,,,AN,001,2024-10-25_12h01.13.207,v5,2024.1.5,None,2024-10-25 12h01.29.548098 +0530,
Case,,,,0,0,0,10,,,,,6.898918249993585,,,,,,,,,,,,6.770843459002208,6.898918249993585,6.898918249993585,7.952237833989784,1.8488888888888888,1.121246708004037,,,,,,,,,,,,,,,,,,,,,,AN,001,2024-10-25_12h01.13.207,v5,2024.1.5,None,2024-10-25 12h01.29.548098 +0530,
Chart,,,,0,1,1,6,,,,,8.00601020900649,,,,,,,,,,,,7.953461625002092,8.00601020900649,8.00601020900649,8.865699084009975,2.7066666666666666,0.8280932909983676,,,,,,,,,,,,,,,,,,,,,,AN,001,2024-10-25_12h01.13.207,v5,2024.1.5,None,2024-10-25 12h01.29.548098 +0530,
Marble ,,,,0,2,2,3,,,,,8.967393458995502,,,,,,,,,,,,8.866571958991699,8.967393458995502,8.967393458995502,9.949085583997658,1.04,0.999472583993338,,,,,,,,,,,,,,,,,,,,,,AN,001,2024-10-25_12h01.13.207,v5,2024.1.5,None,2024-10-25 12h01.29.548098 +0530,
mouse,,,,0,3,3,8,,,,,9.996421583986375,,,,,,,,,,,,9.949662958999397,9.996421583986375,9.996421583986375,11.36219162499765,1.84,1.3674092500004917,,,,,,,,,,,,,,,,,,,,,,AN,001,2024-10-25_12h01.13.207,v5,2024.1.5,None,2024-10-25 12h01.29.548098 +0530,
Board ,,,,0,4,4,4,,,,,11.433970749989385,,,,,,,,,,,,11.363158499996644,11.433970749989385,11.433970749989385,12.37630904201069,3.0355555555555553,0.9494212919962592,,,,,,,,,,,,,,,,,,,,,,AN,001,2024-10-25_12h01.13.207,v5,2024.1.5,None,2024-10-25 12h01.29.548098 +0530,
Cruise,,,,0,5,5,11,,,,,12.437320083990926,,,,,,,,,,,,12.377341249986785,12.437320083990926,12.437320083990926,13.442462917009834,1.2044444444444444,1.0179134169884492,,,,,,,,,,,,,,,,,,,,,,AN,001,2024-10-25_12h01.13.207,v5,2024.1.5,None,2024-10-25 12h01.29.548098 +0530,
Poster,,,,0,6,6,14,,,,,13.47483237501001,,,,,,,,,,,,13.442973208992044,13.47483237501001,13.47483237501001,14.490860249992693,3.3777777777777778,0.9968740830081515,,,,,,,,,,,,,,,,,,,,,,AN,001,2024-10-25_12h01.13.207,v5,2024.1.5,None,2024-10-25 12h01.29.548098 +0530,
Book ,,,,0,7,7,0,,,,,14.550305000011576,,,,,,,,,,,,14.49169012499624,14.550305000011576,14.550305000011576,16.191548542003147,1,1.6508505840029102,,,,,,,,,,,,,,,,,,,,,,AN,001,2024-10-25_12h01.13.207,v5,2024.1.5,None,2024-10-25 12h01.29.548098 +0530,
Police,,,,0,8,8,12,,,,,16.223572999995667,,,,,,,,,,,,16.192047541990178,16.223572999995667,16.223572999995667,17.54635883399169,3.462222222222222,1.3245319170237053,,,,,,,,,,,,,,,,,,,,,,AN,001,2024-10-25_12h01.13.207,v5,2024.1.5,None,2024-10-25 12h01.29.548098 +0530,
T-shirt,,,,0,9,9,7,,,,,17.58504916698439,,,,,,,,,,,,17.54685229199822,17.58504916698439,17.58504916698439,18.704470041993773,1.8711111111111112,1.1015436250017956,,,,,,,,,,,,,,,,,,,,,,AN,001,2024-10-25_12h01.13.207,v5,2024.1.5,None,2024-10-25 12h01.29.548098 +0530,
Keys,,,,0,10,10,13,,,,,18.77268404199276,,,,,,,,,,,,18.705822583986446,18.77268404199276,18.77268404199276,19.403288708999753,2.6,0.630637124995701,,,,,,,,,,,,,,,,,,,,,,AN,001,2024-10-25_12h01.13.207,v5,2024.1.5,None,2024-10-25 12h01.29.548098 +0530,
Phone ,,,,0,11,11,2,,,,,19.462597709003603,,,,,,,,,,,,19.404106917005265,19.462597709003603,19.462597709003603,20.218149874999654,4.444444444444445,0.7605860000185203,,,,,,,,,,,,,,,,,,,,,,AN,001,2024-10-25_12h01.13.207,v5,2024.1.5,None,2024-10-25 12h01.29.548098 +0530,
Pastry,,,,0,12,12,9,,,,,20.262491542001953,,,,,,,,,,,,20.221661416988354,20.262491542001953,20.262491542001953,21.19409716699738,3.7155555555555555,0.928404500009492,,,,,,,,,,,,,,,,,,,,,,AN,001,2024-10-25_12h01.13.207,v5,2024.1.5,None,2024-10-25 12h01.29.548098 +0530,
Cushion ,,,,0,13,13,1,,,,,21.242014541989192,,,,,,,,,,,,21.19473749998724,21.242014541989192,21.242014541989192,22.09660812499351,1.7333333333333334,0.8495090839860495,,,,,,,,,,,,,,,,,,,,,,AN,001,2024-10-25_12h01.13.207,v5,2024.1.5,None,2024-10-25 12h01.29.548098 +0530,
Laptop ,,,,0,14,14,5,,,,,22.16854941699421,,,,,,,,,,,,22.09735929200542,22.16854941699421,22.16854941699421,23.84726429200964,1,1.7000090410001576,,,,,,,,,,,,,,,,,,,,,,AN,001,2024-10-25_12h01.13.207,v5,2024.1.5,None,2024-10-25 12h01.29.548098 +0530,
,,,,,,,,,,,,,,,,,,,,,,,,,,,,,,23.847641000000294,23.856164541997714,25.893479708989616,25.839774166990537,,,,,,,,,,,,,,,,,,AN,001,2024-10-25_12h01.13.207,v5,2024.1.5,None,2024-10-25 12h01.29.548098 +0530,
,_ha_t ,chart,old,,,,,0,0,0,1,25.893479708989616,,,,,,,,,,,,,,,,,,,,,,25.8606978339958,25.893479708989616,25.893479708989616,25.893479708989616,0.023194708017399535,28.893442500004312,chart,[-0.06222222222222222],[-0.3],[1],[0],[0],[3.0219961249968037],['submit_text'],,,,AN,001,2024-10-25_12h01.13.207,v5,2024.1.5,None,2024-10-25 12h01.29.548098 +0530,
,P_li_e,police,old,,,,,0,1,1,7,28.924060833989643,,,,,,,,,,,,,,,,,,,,,,28.89643337499001,28.924060833989643,28.924060833989643,28.924060833989643,0.007350750005571172,30.77580862501054,police,[-0.06222222222222222],[-0.3],[1],[0],[0],[1.8718858339998405],['submit_text'],,,,AN,001,2024-10-25_12h01.13.207,v5,2024.1.5,None,2024-10-25 12h01.29.548098 +0530,
,_oo_,book ,old,,,,,0,2,2,13,30.800523000012618,,,,,,,,,,,,,,,,,,,,,,30.777130333997775,30.800523000012618,30.800523000012618,30.800523000012618,0.004829582991078496,33.00231445900863,book,[-0.06222222222222222],[-0.3],[1],[0],[0],[2.220049541996559],['submit_text'],,,,AN,001,2024-10-25_12h01.13.207,v5,2024.1.5,None,2024-10-25 12h01.29.548098 +0530,
,C_s_ ,case,old,,,,,0,3,3,5,33.02348062500823,,,,,,,,,,,,,,,,,,,,,,33.00323574998765,33.02348062500823,33.02348062500823,33.02348062500823,0.0039627499936614186,35.94354762500734,cuss,[-0.05333333333333334],[-0.3022222222222222],[1],[0],[0],[2.935907709004823],['submit_text'],,,,AN,001,2024-10-25_12h01.13.207,v5,2024.1.5,None,2024-10-25 12h01.29.548098 +0530,
,P_st_r,poster,old,,,,,0,4,4,9,35.96624583398807,,,,,,,,,,,,,,,,,,,,,,35.94484091698541,35.96624583398807,35.96624583398807,35.96624583398807,0.005056416994193569,39.10337579200859,pastor,[-0.05333333333333334],[-0.3022222222222222],[1],[0],[0],[3.1530099580122624],['submit_text'],,,,AN,001,2024-10-25_12h01.13.207,v5,2024.1.5,None,2024-10-25 12h01.29.548098 +0530,
,T_hi_t ,tshirt,old,,,,,0,5,5,2,39.13641916698543,,,,,,,,,,,,,,,,,,,,,,39.10517329198774,39.13641916698543,39.13641916698543,39.13641916698543,0.007802292006090283,41.20236991700949,tshirt,[-0.05333333333333334],[-0.3022222222222222],[1],[0],[0],[2.0889277909882367],['submit_text'],,,,AN,001,2024-10-25_12h01.13.207,v5,2024.1.5,None,2024-10-25 12h01.29.548098 +0530,
,_o_se ,mouse,old,,,,,0,6,6,3,41.23501829200541,,,,,,,,,,,,,,,,,,,,,,41.204289124987554,41.23501829200541,41.23501829200541,41.23501829200541,0.007436500018229708,46.41483641701052,mouse,[-0.05333333333333334],[-0.3022222222222222],[1],[0],[0],[5.2027157499978784],['submit_text'],,,,AN,001,2024-10-25_12h01.13.207,v5,2024.1.5,None,2024-10-25 12h01.29.548098 +0530,
,_a_tr_,pastry ,old,,,,,0,7,7,4,46.441971041989746,,,,,,,,,,,,,,,,,,,,,,46.416323209006805,46.441971041989746,46.441971041989746,46.441971041989746,0.005740374996094033,48.8933410840109,pastry,[-0.05333333333333334],[-0.3022222222222222],[1],[0],[0],[2.466175290988758],['submit_text'],,,,AN,001,2024-10-25_12h01.13.207,v5,2024.1.5,None,2024-10-25 12h01.29.548098 +0530,
,_r_is_ ,cruise ,old,,,,,0,8,8,6,48.92961204200401,,,,,,,,,,,,,,,,,,,,,,48.895061166986125,48.92961204200401,48.92961204200401,48.92961204200401,0.008284749987069517,52.45670874998905,cruise,[-0.05333333333333334],[-0.3022222222222222],[1],[0],[0],[3.5531783330079634],['submit_text'],,,,AN,001,2024-10-25_12h01.13.207,v5,2024.1.5,None,2024-10-25 12h01.29.548098 +0530,
,p_nc_l,pencil,new,,,,,0,9,9,16,52.488719124987256,,,,,,,,,,,,,,,,,,,,,,52.458346667001024,52.488719124987256,52.488719124987256,52.488719124987256,0.006732790992828086,54.277237375004916,pencil,[-0.05333333333333334],[-0.3022222222222222],[1],[0],[0],[1.8053090830217116],['submit_text'],,,,AN,001,2024-10-25_12h01.13.207,v5,2024.1.5,None,2024-10-25 12h01.29.548098 +0530,
,_ho_e,phone,old,,,,,0,10,10,12,54.319784499995876,,,,,,,,,,,,,,,,,,,,,,54.27892474998953,54.319784499995876,54.319784499995876,54.319784499995876,0.007351084001129493,57.56599295898923,shoes,[-0.05333333333333334],[-0.3022222222222222],[1],[0],[0],[3.277831374987727],['submit_text'],,,,AN,001,2024-10-25_12h01.13.207,v5,2024.1.5,None,2024-10-25 12h01.29.548098 +0530,
,v_s_,vase ,new,,,,,0,11,11,17,57.63197533399216,,,,,,,,,,,,,,,,,,,,,,57.57241991700721,57.63197533399216,57.63197533399216,57.63197533399216,0.01757566598826088,60.10794379201252,voss,[-0.05333333333333334],[-0.3022222222222222],[1],[0],[0],[2.5184855409897864],['submit_text'],,,,AN,001,2024-10-25_12h01.13.207,v5,2024.1.5,None,2024-10-25 12h01.29.548098 +0530,
,ta_l_ ,table ,new,,,,,0,12,12,15,60.14057762498851,,,,,,,,,,,,,,,,,,,,,,60.10954008399858,60.14057762498851,60.14057762498851,60.14057762498851,0.007093792024534196,62.10366295900894,table,[-0.05333333333333334],[-0.3022222222222222],[1],[0],[0],[1.9860330839874223],['submit_text'],,,,AN,001,2024-10-25_12h01.13.207,v5,2024.1.5,None,2024-10-25 12h01.29.548098 +0530,
,bo_t_e ,bottle ,new,,,,,0,13,13,18,62.14232233399525,,,,,,,,,,,,,,,,,,,,,,62.106201084010536,62.14232233399525,62.14232233399525,62.14232233399525,0.008677875011926517,67.06624120898778,boltes,[-0.05333333333333334],[-0.3022222222222222],[1],[0],[0],[4.950690166995628],['submit_text'],,,,AN,001,2024-10-25_12h01.13.207,v5,2024.1.5,None,2024-10-25 12h01.29.548098 +0530,
,c_m_ra,camera,new,,,,,0,14,14,19,67.09970720901038,,,,,,,,,,,,,,,,,,,,,,67.06824958400102,67.09970720901038,67.09970720901038,67.09970720901038,0.008140499994624406,69.13196129200514,camera,[-0.05333333333333334],[-0.3022222222222222],[1],[0],[0],[2.05447537501459],['submit_text'],,,,AN,001,2024-10-25_12h01.13.207,v5,2024.1.5,None,2024-10-25 12h01.29.548098 +0530,
,c_s_io_,cushion,old,,,,,0,15,15,14,69.17062820898718,,,,,,,,,,,,,,,,,,,,,,69.13424899999518,69.17062820898718,69.17062820898718,69.17062820898718,0.008469042018987238,71.61866758399992,cushion,[-0.05333333333333334],[-0.3022222222222222],[1],[0],[0],[2.475576500000898],['submit_text'],,,,AN,001,2024-10-25_12h01.13.207,v5,2024.1.5,None,2024-10-25 12h01.29.548098 +0530,
,_o_rd ,board,old,,,,,0,16,16,10,71.6590439589927,,,,,,,,,,,,,,,,,,,,,,71.62059354200028,71.6590439589927,71.6590439589927,71.6590439589927,0.00783358298940584,73.34244358399883,board,[-0.05333333333333334],[-0.3022222222222222],[1],[0],[0],[1.7065057919826359],['submit_text'],,,,AN,001,2024-10-25_12h01.13.207,v5,2024.1.5,None,2024-10-25 12h01.29.548098 +0530,
,K_y_ ,keys,old,,,,,0,17,17,8,73.38132350001251,,,,,,,,,,,,,,,,,,,,,,73.34477233400685,73.38132350001251,73.38132350001251,73.38132350001251,0.009669541992479935,74.95277366699884,keys,[-0.05333333333333334],[-0.3022222222222222],[1],[0],[0],[1.597869916993659],['submit_text'],,,,AN,001,2024-10-25_12h01.13.207,v5,2024.1.5,None,2024-10-25 12h01.29.548098 +0530,
,l_pt_p ,laptop ,old,,,,,0,18,18,0,74.97783729201183,,,,,,,,,,,,,,,,,,,,,,74.95418320898898,74.97783729201183,74.97783729201183,74.97783729201183,0.0056315420079045,77.17975700000534,laptop,[-0.05333333333333334],[-0.3022222222222222],[1],[0],[0],[2.2195994580106344],['submit_text'],,,,AN,001,2024-10-25_12h01.13.207,v5,2024.1.5,None,2024-10-25 12h01.29.548098 +0530,
,_a_bl_,marble,old,,,,,0,19,19,11,77.20527854200918,,,,,,,,,,,,,,,,,,,,,,77.18087966699386,77.20527854200918,77.20527854200918,77.20527854200918,0.004733916983241215,80.3305064169981,marble,[-0.05333333333333334],[-0.3022222222222222],[1],[0],[0],[3.1441715840192046],['submit_text'],,,,AN,001,2024-10-25_12h01.13.207,v5,2024.1.5,None,2024-10-25 12h01.29.548098 +0530,
,,,,,,,,,,,,,,,,,,,,,,,,,,,,,,,,,,,,,,,,,,,,,,,,80.33226608400582,80.34408112498932,80.83379554198473,AN,001,2024-10-25_12h01.13.207,v5,2024.1.5,None,2024-10-25 12h01.29.548098 +0530,
