reward_today,future_reward,delay,trials.thisRepN,trials.thisTrialN,trials.thisN,trials.thisIndex,thisRow.t,notes,Ins.started,text_3.started,key_resp_2.started,Ins.stopped,key_resp_2.keys,key_resp_2.rt,key_resp_2.duration,trial.started,Fixation.started,text.started,key_resp.started,Fixation.stopped,trial.stopped,key_resp.keys,key_resp.rt,key_resp.duration,thanks.started,text_2.started,text_2.stopped,thanks.stopped,participant,session,date,expName,psychopyVersion,frameRate,expStart,
,,,,,,,,,0.01080566697055474,0.029305083968210965,0.029305083968210965,1.9779413749929518,space,1.882651583000552,None,,,,,,,,,,,,,,AR,001,2024-11-17_20h07.28.757,v7,2024.1.5,None,2024-11-17 20h10.41.039419 +0530,
67,75,119,0,0,0,5,2.006355874997098,,,,,,,,,1.986438249994535,2.006355874997098,2.9774490419658832,2.9774490419658832,3.0194467089604586,5.121638167009223,t,2.1421211249544285,None,,,,,AR,001,2024-11-17_20h07.28.757,v7,2024.1.5,None,2024-11-17 20h10.41.039419 +0530,
78,80,162,0,1,1,6,5.1392603339627385,,,,,,,,,5.12301275000209,5.1392603339627385,6.118897833977826,6.118897833977826,6.1347899999818765,7.276815541961696,t,1.1516749580041505,None,,,,,AR,001,2024-11-17_20h07.28.757,v7,2024.1.5,None,2024-11-17 20h10.41.039419 +0530,
15,35,13,0,2,2,1,7.299588624970056,,,,,,,,,7.2776281670085154,7.299588624970056,8.278386624995619,8.278386624995619,8.319624958967324,9.810600374999922,l,1.5253273749840446,None,,,,,AR,001,2024-11-17_20h07.28.757,v7,2024.1.5,None,2024-11-17 20h10.41.039419 +0530,
40,55,62,0,3,3,3,9.826927458983846,,,,,,,,,9.811690708971582,9.826927458983846,10.810703666997142,10.810703666997142,10.818989208957646,12.903990041988436,l,2.083181374997366,None,,,,,AR,001,2024-11-17_20h07.28.757,v7,2024.1.5,None,2024-11-17 20h10.41.039419 +0530,
49,60,89,0,4,4,4,12.919527416990604,,,,,,,,,12.904806458973326,12.919527416990604,13.90233441698365,13.90233441698365,13.909040750004351,15.397950334008783,t,1.4844781249994412,None,,,,,AR,001,2024-11-17_20h07.28.757,v7,2024.1.5,None,2024-11-17 20h10.41.039419 +0530,
27,50,21,0,5,5,2,15.40890495898202,,,,,,,,,15.398824292002246,15.40890495898202,16.39464404201135,16.39464404201135,16.401655708963517,17.037874959001783,l,0.6370337500120513,None,,,,,AR,001,2024-11-17_20h07.28.757,v7,2024.1.5,None,2024-11-17 20h10.41.039419 +0530,
11,30,7,0,6,6,0,17.05327941698488,,,,,,,,,17.03884404199198,17.05327941698488,18.035856916976627,18.035856916976627,18.042497249960434,18.349239374976605,l,0.3008062499575317,None,,,,,AR,001,2024-11-17_20h07.28.757,v7,2024.1.5,None,2024-11-17 20h10.41.039419 +0530,
67,75,119,1,0,7,5,18.361528916982934,,,,,,,,,18.350052749970928,18.361528916982934,19.34432624996407,19.34432624996407,19.35254879196873,19.854402916971594,t,0.4998514170292765,None,,,,,AR,001,2024-11-17_20h07.28.757,v7,2024.1.5,None,2024-11-17 20h10.41.039419 +0530,
78,80,162,1,1,8,6,19.869887084001675,,,,,,,,,19.855451292009093,19.869887084001675,20.85256249998929,20.85256249998929,20.8597326669842,22.210946917010006,t,1.356120957992971,None,,,,,AR,001,2024-11-17_20h07.28.757,v7,2024.1.5,None,2024-11-17 20h10.41.039419 +0530,
27,50,21,1,2,9,2,22.225450333964545,,,,,,,,,22.21192049997626,22.225450333964545,23.212164458993357,23.212164458993357,23.21910216700053,23.888000999984797,l,0.6660617910092697,None,,,,,AR,001,2024-11-17_20h07.28.757,v7,2024.1.5,None,2024-11-17 20h10.41.039419 +0530,
49,60,89,1,3,10,4,23.903389624960255,,,,,,,,,23.888960874988697,23.903389624960255,24.88607349997619,24.88607349997619,24.89293999999063,26.154585458978545,t,1.2624383750371635,None,,,,,AR,001,2024-11-17_20h07.28.757,v7,2024.1.5,None,2024-11-17 20h10.41.039419 +0530,
11,30,7,1,4,11,0,26.170817999984138,,,,,,,,,26.15555820899317,26.170817999984138,27.152794541965704,27.152794541965704,27.169472292007413,27.847850708989426,l,0.6842493749572895,None,,,,,AR,001,2024-11-17_20h07.28.757,v7,2024.1.5,None,2024-11-17 20h10.41.039419 +0530,
15,35,13,1,5,12,1,27.859932374965865,,,,,,,,,27.8486511670053,27.859932374965865,28.844523834006395,28.844523834006395,28.852882375009358,29.564711374987382,l,0.7090695839724503,None,,,,,AR,001,2024-11-17_20h07.28.757,v7,2024.1.5,None,2024-11-17 20h10.41.039419 +0530,
40,55,62,1,6,13,3,29.576367166999262,,,,,,,,,29.565514374990016,29.576367166999262,30.561477208975703,30.561477208975703,30.56967950001126,31.587744333955925,t,1.017247290990781,None,,,,,AR,001,2024-11-17_20h07.28.757,v7,2024.1.5,None,2024-11-17 20h10.41.039419 +0530,
49,60,89,2,0,14,4,31.602370666980278,,,,,,,,,31.588551958964672,31.602370666980278,32.586301458999515,32.586301458999515,32.59309120901162,33.538279166969005,t,0.9439730829908513,None,,,,,AR,001,2024-11-17_20h07.28.757,v7,2024.1.5,None,2024-11-17 20h10.41.039419 +0530,
15,35,13,2,1,15,1,33.55367737496272,,,,,,,,,33.53922712500207,33.55367737496272,34.53561341698514,34.53561341698514,34.55303120898316,35.06115358398529,l,0.5231195419910364,None,,,,,AR,001,2024-11-17_20h07.28.757,v7,2024.1.5,None,2024-11-17 20h10.41.039419 +0530,
11,30,7,2,2,16,0,35.07547437498579,,,,,,,,,35.06193212501239,35.07547437498579,36.06310599995777,36.06310599995777,36.07007145899115,36.654892749967985,l,0.5823228750377893,None,,,,,AR,001,2024-11-17_20h07.28.757,v7,2024.1.5,None,2024-11-17 20h10.41.039419 +0530,
40,55,62,2,3,17,3,36.67071258398937,,,,,,,,,36.65584816696355,36.67071258398937,37.65341637498932,37.65341637498932,37.660928791970946,39.12801991699962,t,1.4673141250386834,None,,,,,AR,001,2024-11-17_20h07.28.757,v7,2024.1.5,None,2024-11-17 20h10.41.039419 +0530,
27,50,21,2,4,18,2,39.14241849997779,,,,,,,,,39.12880679196678,39.14241849997779,40.12871191697195,40.12871191697195,40.13571362500079,40.62183220899897,l,0.48772775003453717,None,,,,,AR,001,2024-11-17_20h07.28.757,v7,2024.1.5,None,2024-11-17 20h10.41.039419 +0530,
78,80,162,2,5,19,6,40.63681733398698,,,,,,,,,40.62273816700326,40.63681733398698,41.6199652919895,41.6199652919895,41.626794416981284,42.49498037499143,t,0.8677879580063745,None,,,,,AR,001,2024-11-17_20h07.28.757,v7,2024.1.5,None,2024-11-17 20h10.41.039419 +0530,
67,75,119,2,6,20,5,42.508989541966,,,,,,,,,42.49576970899943,42.508989541966,43.4954743339913,43.4954743339913,43.50288620899664,44.32801570900483,t,0.8282422499614768,None,,,,,AR,001,2024-11-17_20h07.28.757,v7,2024.1.5,None,2024-11-17 20h10.41.039419 +0530,
15,35,13,3,0,21,1,44.34244504198432,,,,,,,,,44.32880949997343,44.34244504198432,45.32947937498102,45.32947937498102,45.336345416959375,45.90551037498517,l,0.5661328340065666,None,,,,,AR,001,2024-11-17_20h07.28.757,v7,2024.1.5,None,2024-11-17 20h10.41.039419 +0530,
67,75,119,3,1,22,5,45.92079016700154,,,,,,,,,45.9064446669654,45.92079016700154,46.903393666958436,46.903393666958436,46.91040837496985,47.77911075000884,t,0.8723901250050403,None,,,,,AR,001,2024-11-17_20h07.28.757,v7,2024.1.5,None,2024-11-17 20h10.41.039419 +0530,
11,30,7,3,2,23,0,47.794392041978426,,,,,,,,,47.77989800000796,47.794392041978426,48.778904834005516,48.778904834005516,48.78583970898762,49.27826950000599,l,0.4921329580247402,None,,,,,AR,001,2024-11-17_20h07.28.757,v7,2024.1.5,None,2024-11-17 20h10.41.039419 +0530,
40,55,62,3,3,24,3,49.292287041957024,,,,,,,,,49.27904670900898,49.292287041957024,50.27922112500528,50.27922112500528,50.286343749961816,51.845137708995026,l,1.562404541997239,None,,,,,AR,001,2024-11-17_20h07.28.757,v7,2024.1.5,None,2024-11-17 20h10.41.039419 +0530,
49,60,89,3,4,25,4,51.85964029200841,,,,,,,,,51.84592862497084,51.85964029200841,52.84517116699135,52.84517116699135,52.85352274996694,53.578310999961104,t,0.7310411660000682,None,,,,,AR,001,2024-11-17_20h07.28.757,v7,2024.1.5,None,2024-11-17 20h10.41.039419 +0530,
78,80,162,3,5,26,6,53.592294792004395,,,,,,,,,53.579108125006314,53.592294792004395,54.578986749984324,54.578986749984324,54.58700866700383,55.38806724996539,t,0.7819669999880716,None,,,,,AR,001,2024-11-17_20h07.28.757,v7,2024.1.5,None,2024-11-17 20h10.41.039419 +0530,
27,50,21,3,6,27,2,55.40407008398324,,,,,,,,,55.38902745896485,55.40407008398324,56.38697774999309,56.38697774999309,56.39392324996879,56.961828083964065,l,0.5702511249692179,None,,,,,AR,001,2024-11-17_20h07.28.757,v7,2024.1.5,None,2024-11-17 20h10.41.039419 +0530,
11,30,7,4,0,28,0,56.976181917008944,,,,,,,,,56.96261108398903,56.976181917008944,57.96254949999275,57.96254949999275,57.96953508397564,58.43875462497817,l,0.46846858301432803,None,,,,,AR,001,2024-11-17_20h07.28.757,v7,2024.1.5,None,2024-11-17 20h10.41.039419 +0530,
40,55,62,4,1,29,3,58.45374037500005,,,,,,,,,58.43957970896736,58.45374037500005,59.43708920897916,59.43708920897916,59.44382595899515,60.27897266700165,t,0.8399387920508161,None,,,,,AR,001,2024-11-17_20h07.28.757,v7,2024.1.5,None,2024-11-17 20h10.41.039419 +0530,
27,50,21,4,2,30,2,60.29359633399872,,,,,,,,,60.27978037495632,60.29359633399872,61.27921279199654,61.27921279199654,61.2862943749642,61.905755584011786,l,0.6199352080002427,None,,,,,AR,001,2024-11-17_20h07.28.757,v7,2024.1.5,None,2024-11-17 20h10.41.039419 +0530,
67,75,119,4,3,31,5,61.92023150000023,,,,,,,,,61.9066688339808,61.92023150000023,62.90417095896555,62.90417095896555,62.91113266698085,63.70567374996608,t,0.7912346249795519,None,,,,,AR,001,2024-11-17_20h07.28.757,v7,2024.1.5,None,2024-11-17 20h10.41.039419 +0530,
78,80,162,4,4,32,6,63.72138233395526,,,,,,,,,63.70663529197918,63.72138233395526,64.70390987501014,64.70390987501014,64.7110148339998,65.39671462500701,t,0.6872620839858428,None,,,,,AR,001,2024-11-17_20h07.28.757,v7,2024.1.5,None,2024-11-17 20h10.41.039419 +0530,
49,60,89,4,5,33,4,65.41134266700828,,,,,,,,,65.39764866698533,65.41134266700828,66.39616254199063,66.39616254199063,66.40306624997174,66.93909624998923,l,0.5326803749776445,None,,,,,AR,001,2024-11-17_20h07.28.757,v7,2024.1.5,None,2024-11-17 20h10.41.039419 +0530,
15,35,13,4,6,34,1,66.95407729200087,,,,,,,,,66.93991879199166,66.95407729200087,67.93731916695833,67.93731916695833,67.94418462499743,68.51245033397572,l,0.5718279159627855,None,,,,,AR,001,2024-11-17_20h07.28.757,v7,2024.1.5,None,2024-11-17 20h10.41.039419 +0530,
27,50,21,5,0,35,2,68.52735170896631,,,,,,,,,68.51338895899244,68.52735170896631,69.51325224997709,69.51325224997709,69.52036312496057,69.93923091696342,l,0.42115766694769263,None,,,,,AR,001,2024-11-17_20h07.28.757,v7,2024.1.5,None,2024-11-17 20h10.41.039419 +0530,
15,35,13,5,1,36,1,69.95466191699961,,,,,,,,,69.94018974999199,69.95466191699961,70.93648520897841,70.93648520897841,70.95416312495945,71.34541962499497,l,0.40225266700144857,None,,,,,AR,001,2024-11-17_20h07.28.757,v7,2024.1.5,None,2024-11-17 20h10.41.039419 +0530,
78,80,162,5,2,37,6,71.35948824998923,,,,,,,,,71.34619924996514,71.35948824998923,72.34698329196544,72.34698329196544,72.3540582919959,72.8631929999683,t,0.5137531670043245,None,,,,,AR,001,2024-11-17_20h07.28.757,v7,2024.1.5,None,2024-11-17 20h10.41.039419 +0530,
67,75,119,5,3,38,5,72.87729716696776,,,,,,,,,72.86412916699192,72.87729716696776,73.86298558401177,73.86298558401177,73.87006133398972,74.32903779199114,t,0.4624033750151284,None,,,,,AR,001,2024-11-17_20h07.28.757,v7,2024.1.5,None,2024-11-17 20h10.41.039419 +0530,
40,55,62,5,4,39,3,74.3438798339921,,,,,,,,,74.32981600001222,74.3438798339921,75.32921983400593,75.32921983400593,75.33763166697463,75.74596112500876,l,0.41032087500207126,None,,,,,AR,001,2024-11-17_20h07.28.757,v7,2024.1.5,None,2024-11-17 20h10.41.039419 +0530,
11,30,7,5,5,40,0,75.76016379200155,,,,,,,,,75.74691175000044,75.76016379200155,76.74598533398239,76.74598533398239,76.7547156669898,77.13020449999021,l,0.3777285839896649,None,,,,,AR,001,2024-11-17_20h07.28.757,v7,2024.1.5,None,2024-11-17 20h10.41.039419 +0530,
49,60,89,5,6,41,4,77.14508524996927,,,,,,,,,77.13114224997116,77.14508524996927,78.12924304197077,78.12924304197077,78.13762591697741,78.48976525000762,l,0.35857745801331475,None,,,,,AR,001,2024-11-17_20h07.28.757,v7,2024.1.5,None,2024-11-17 20h10.41.039419 +0530,
67,75,119,6,0,42,5,78.50477741699433,,,,,,,,,78.49062870896887,78.50477741699433,79.48769012500998,79.48769012500998,79.49525087495567,79.82940329198027,t,0.3346399169531651,None,,,,,AR,001,2024-11-17_20h07.28.757,v7,2024.1.5,None,2024-11-17 20h10.41.039419 +0530,
11,30,7,6,1,43,0,79.84367045899853,,,,,,,,,79.83033716696082,79.84367045899853,80.8303912919946,80.8303912919946,80.837363833969,81.31285887496779,l,0.47802283300552517,None,,,,,AR,001,2024-11-17_20h07.28.757,v7,2024.1.5,None,2024-11-17 20h10.41.039419 +0530,
15,35,13,6,2,44,1,81.32738304196391,,,,,,,,,81.31375591695542,81.32738304196391,82.31272837496363,82.31272837496363,82.32109624997247,82.6963460840052,l,0.3807856250205077,None,,,,,AR,001,2024-11-17_20h07.28.757,v7,2024.1.5,None,2024-11-17 20h10.41.039419 +0530,
40,55,62,6,3,45,3,82.71111012500478,,,,,,,,,82.6972508750041,82.71111012500478,83.69693724997342,83.69693724997342,83.70393016695743,84.3399443749804,t,0.6410522080259398,None,,,,,AR,001,2024-11-17_20h07.28.757,v7,2024.1.5,None,2024-11-17 20h10.41.039419 +0530,
49,60,89,6,4,46,4,84.35592195898062,,,,,,,,,84.3409000840038,84.35592195898062,85.33792770898435,85.33792770898435,85.35449145897292,85.75649716699263,t,0.41244225000264123,None,,,,,AR,001,2024-11-17_20h07.28.757,v7,2024.1.5,None,2024-11-17 20h10.41.039419 +0530,
27,50,21,6,5,47,2,85.77210083400132,,,,,,,,,85.75743912498001,85.77210083400132,86.7538825419615,86.7538825419615,86.77120937500149,87.43026125000324,l,0.6719897500006482,None,,,,,AR,001,2024-11-17_20h07.28.757,v7,2024.1.5,None,2024-11-17 20h10.41.039419 +0530,
78,80,162,6,6,48,6,87.44464687496657,,,,,,,,,87.43120845896192,87.44464687496657,88.42980974999955,88.42980974999955,88.43809087498812,88.96287470898824,t,0.5271381669444963,None,,,,,AR,001,2024-11-17_20h07.28.757,v7,2024.1.5,None,2024-11-17 20h10.41.039419 +0530,
15,35,13,7,0,49,1,88.9771702089929,,,,,,,,,88.96365041699028,88.9771702089929,89.963408584008,89.963408584008,89.97048066696152,90.4231238749926,l,0.4529618750093505,None,,,,,AR,001,2024-11-17_20h07.28.757,v7,2024.1.5,None,2024-11-17 20h10.41.039419 +0530,
49,60,89,7,1,50,4,90.43781716696685,,,,,,,,,90.42396149999695,90.43781716696685,91.42141804198036,91.42141804198036,91.42897166695911,92.04648516699672,t,0.6224932079785503,None,,,,,AR,001,2024-11-17_20h07.28.757,v7,2024.1.5,None,2024-11-17 20h10.41.039419 +0530,
67,75,119,7,2,51,5,92.06123433395987,,,,,,,,,92.04742145899218,92.06123433395987,93.04621641698759,93.04621641698759,93.05478941695765,93.91269408399239,t,0.859742250002455,None,,,,,AR,001,2024-11-17_20h07.28.757,v7,2024.1.5,None,2024-11-17 20h10.41.039419 +0530,
27,50,21,7,3,52,2,93.92723870900227,,,,,,,,,93.91348883399041,93.92723870900227,94.91411958396202,94.91411958396202,94.9211721669999,95.60747275000904,l,0.6914716670289636,None,,,,,AR,001,2024-11-17_20h07.28.757,v7,2024.1.5,None,2024-11-17 20h10.41.039419 +0530,
11,30,7,7,4,53,0,95.62243458395824,,,,,,,,,95.6084201670019,95.62243458395824,96.6045018339646,96.6045018339646,96.62158837501192,97.590909541992,l,0.9844283749698661,None,,,,,AR,001,2024-11-17_20h07.28.757,v7,2024.1.5,None,2024-11-17 20h10.41.039419 +0530,
40,55,62,7,5,54,3,97.60657337500015,,,,,,,,,97.59185841697035,97.60657337500015,98.58863795897923,98.58863795897923,98.60521187499398,99.06457683397457,t,0.470609667012468,None,,,,,AR,001,2024-11-17_20h07.28.757,v7,2024.1.5,None,2024-11-17 20h10.41.039419 +0530,
78,80,162,7,6,55,6,99.08469937497284,,,,,,,,,99.06583199999295,99.08469937497284,100.06377899996005,100.06377899996005,100.07902858400485,101.24655895895557,t,1.1784365830244496,None,,,,,AR,001,2024-11-17_20h07.28.757,v7,2024.1.5,None,2024-11-17 20h10.41.039419 +0530,
15,35,13,8,0,56,1,101.2613129169913,,,,,,,,,101.24735983397113,101.2613129169913,102.24746770900674,102.24746770900674,102.25458212499507,102.87942570896121,l,0.6256745829596184,None,,,,,AR,001,2024-11-17_20h07.28.757,v7,2024.1.5,None,2024-11-17 20h10.41.039419 +0530,
67,75,119,8,1,57,5,102.89416704198811,,,,,,,,,102.88036762498086,102.89416704198811,103.87104829197051,103.87104829197051,103.88839699997334,104.32363933400484,t,0.444387125025969,None,,,,,AR,001,2024-11-17_20h07.28.757,v7,2024.1.5,None,2024-11-17 20h10.41.039419 +0530,
78,80,162,8,2,58,6,104.33900833397638,,,,,,,,,104.32458229199983,104.33900833397638,105.32204845896922,105.32204845896922,105.32886020897422,105.82354149996536,t,0.4928276250138879,None,,,,,AR,001,2024-11-17_20h07.28.757,v7,2024.1.5,None,2024-11-17 20h10.41.039419 +0530,
40,55,62,8,3,59,3,105.83866720896913,,,,,,,,,105.8243341249763,105.83866720896913,106.82186345895752,106.82186345895752,106.82959862495773,107.9076913750032,t,1.0838133750366978,None,,,,,AR,001,2024-11-17_20h07.28.757,v7,2024.1.5,None,2024-11-17 20h10.41.039419 +0530,
27,50,21,8,4,60,2,107.92283154197503,,,,,,,,,107.90848624997307,107.92283154197503,108.90525787498336,108.90525787498336,108.91248512500897,109.48051291698357,l,0.5683419579872862,None,,,,,AR,001,2024-11-17_20h07.28.757,v7,2024.1.5,None,2024-11-17 20h10.41.039419 +0530,
11,30,7,8,5,61,0,109.49496049998561,,,,,,,,,109.4814658749965,109.49496049998561,110.47190008399775,110.47190008399775,110.48788949998561,111.30725962499855,l,0.8295601250138134,None,,,,,AR,001,2024-11-17_20h07.28.757,v7,2024.1.5,None,2024-11-17 20h10.41.039419 +0530,
49,60,89,8,6,62,4,111.32264249998843,,,,,,,,,111.30821629200364,111.32264249998843,112.30562937498325,112.30562937498325,112.31299808400217,112.90772129199468,t,0.6000158329843543,None,,,,,AR,001,2024-11-17_20h07.28.757,v7,2024.1.5,None,2024-11-17 20h10.41.039419 +0530,
11,30,7,9,0,63,0,112.92363808397204,,,,,,,,,112.90867141698254,112.92363808397204,113.90563879196998,113.90563879196998,113.92128833400784,114.51363683398813,l,0.6008253750042059,None,,,,,AR,001,2024-11-17_20h07.28.757,v7,2024.1.5,None,2024-11-17 20h10.41.039419 +0530,
27,50,21,9,1,64,2,114.52859445899958,,,,,,,,,114.51457520900294,114.52859445899958,115.51480708399322,115.51480708399322,115.5223885839805,115.94073645898607,l,0.4191386660095304,None,,,,,AR,001,2024-11-17_20h07.28.757,v7,2024.1.5,None,2024-11-17 20h10.41.039419 +0530,
15,35,13,9,2,65,1,115.95592987496639,,,,,,,,,115.94153837498743,115.95592987496639,116.93878566700732,116.93878566700732,116.94565124996006,117.69082379195606,t,0.741523209027946,None,,,,,AR,001,2024-11-17_20h07.28.757,v7,2024.1.5,None,2024-11-17 20h10.41.039419 +0530,
49,60,89,9,3,66,4,117.70592437498271,,,,,,,,,117.69177320896415,117.70592437498271,118.68886704195756,118.68886704195756,118.6961240840028,119.62424983398523,t,0.9266524169943295,None,,,,,AR,001,2024-11-17_20h07.28.757,v7,2024.1.5,None,2024-11-17 20h10.41.039419 +0530,
67,75,119,9,4,67,5,119.63997333397856,,,,,,,,,119.62522049999097,119.63997333397856,120.62223558395635,120.62223558395635,120.63889416697202,121.2902895839652,t,0.6632851660251617,None,,,,,AR,001,2024-11-17_20h07.28.757,v7,2024.1.5,None,2024-11-17 20h10.41.039419 +0530,
78,80,162,9,5,68,6,121.30548054201063,,,,,,,,,121.29124104196671,121.30548054201063,122.28894154197769,122.28894154197769,122.29651466698851,123.14055762498174,t,0.8426019999897107,None,,,,,AR,001,2024-11-17_20h07.28.757,v7,2024.1.5,None,2024-11-17 20h10.41.039419 +0530,
40,55,62,9,6,69,3,123.15512274997309,,,,,,,,,123.14135762496153,123.15512274997309,124.13898770901142,124.13898770901142,124.14575820899336,125.1239980419632,t,0.9771592919714749,None,,,,,AR,001,2024-11-17_20h07.28.757,v7,2024.1.5,None,2024-11-17 20h10.41.039419 +0530,
49,60,89,10,0,70,4,125.1387811669847,,,,,,,,,125.1249440839747,125.1387811669847,126.12237641698448,126.12237641698448,126.12911683396669,126.69088558398653,t,0.5582160420017317,None,,,,,AR,001,2024-11-17_20h07.28.757,v7,2024.1.5,None,2024-11-17 20h10.41.039419 +0530,
11,30,7,10,1,71,0,126.70572137500858,,,,,,,,,126.69170770898927,126.70572137500858,127.68917324999347,127.68917324999347,127.6967664170079,128.1143286669976,l,0.4190935830119997,None,,,,,AR,001,2024-11-17_20h07.28.757,v7,2024.1.5,None,2024-11-17 20h10.41.039419 +0530,
78,80,162,10,2,72,6,128.12887729197973,,,,,,,,,128.11528737499611,128.12887729197973,129.11453891696874,129.11453891696874,129.12163050001254,130.36460620898288,t,1.2457686249981634,None,,,,,AR,001,2024-11-17_20h07.28.757,v7,2024.1.5,None,2024-11-17 20h10.41.039419 +0530,
67,75,119,10,3,73,5,130.3790644169785,,,,,,,,,130.36542579199886,130.3790644169785,131.36446062498726,131.36446062498726,131.37253599998076,133.26472599996487,t,1.8980854169931263,None,,,,,AR,001,2024-11-17_20h07.28.757,v7,2024.1.5,None,2024-11-17 20h10.41.039419 +0530,
27,50,21,10,4,74,2,133.27929841697915,,,,,,,,,133.2656384590082,133.27929841697915,134.26422570896102,134.26422570896102,134.2726558339782,134.8480891250074,l,0.5801388749969192,None,,,,,AR,001,2024-11-17_20h07.28.757,v7,2024.1.5,None,2024-11-17 20h10.41.039419 +0530,
40,55,62,10,5,75,3,134.86262737499783,,,,,,,,,134.8490310839843,134.86262737499783,135.84852820896776,135.84852820896776,135.8554982499918,137.26411720900796,l,1.4124779580160975,None,,,,,AR,001,2024-11-17_20h07.28.757,v7,2024.1.5,None,2024-11-17 20h10.41.039419 +0530,
15,35,13,10,6,76,1,137.27833812497556,,,,,,,,,137.26491729199188,137.27833812497556,138.26488070900086,138.26488070900086,138.271840374975,138.78119645896368,l,0.5126670830068178,None,,,,,AR,001,2024-11-17_20h07.28.757,v7,2024.1.5,None,2024-11-17 20h10.41.039419 +0530,
78,80,162,11,0,77,6,138.79581595899072,,,,,,,,,138.78214270900935,138.79581595899072,139.78178766695783,139.78178766695783,139.78884491696954,140.2978445419576,t,0.5088678749743849,None,,,,,AR,001,2024-11-17_20h07.28.757,v7,2024.1.5,None,2024-11-17 20h10.41.039419 +0530,
67,75,119,11,1,78,5,140.3125918339938,,,,,,,,,140.29880470898934,140.3125918339938,141.29793066700222,141.29793066700222,141.306325249956,142.34837120899465,t,1.0484930420061573,None,,,,,AR,001,2024-11-17_20h07.28.757,v7,2024.1.5,None,2024-11-17 20h10.41.039419 +0530,
27,50,21,11,2,79,2,142.36298220895696,,,,,,,,,142.34909183398122,142.36298220895696,143.34879650000948,143.34879650000948,143.35587562498404,143.908229749999,l,0.5546780829899944,None,,,,,AR,001,2024-11-17_20h07.28.757,v7,2024.1.5,None,2024-11-17 20h10.41.039419 +0530,
49,60,89,11,3,80,4,143.92395550000947,,,,,,,,,143.9091960839578,143.92395550000947,144.90631883399328,144.90631883399328,144.9135401250096,146.13096345897065,t,1.2180432910099626,None,,,,,AR,001,2024-11-17_20h07.28.757,v7,2024.1.5,None,2024-11-17 20h10.41.039419 +0530,
40,55,62,11,4,81,3,146.14520429197,,,,,,,,,146.13175162498374,146.14520429197,147.13179845898412,147.13179845898412,147.13906829198822,148.00819625001168,t,0.8696791669935919,None,,,,,AR,001,2024-11-17_20h07.28.757,v7,2024.1.5,None,2024-11-17 20h10.41.039419 +0530,
11,30,7,11,5,82,0,148.02313099999446,,,,,,,,,148.0090144999558,148.02313099999446,149.00560995895648,149.00560995895648,149.01286033401266,149.50838337501045,l,0.49744054197799414,None,,,,,AR,001,2024-11-17_20h07.28.757,v7,2024.1.5,None,2024-11-17 20h10.41.039419 +0530,
15,35,13,11,6,83,1,149.52385616698302,,,,,,,,,149.50936383398948,149.52385616698302,150.5064032090013,150.5064032090013,150.51365512498887,151.0581303749932,l,0.5428972499794327,None,,,,,AR,001,2024-11-17_20h07.28.757,v7,2024.1.5,None,2024-11-17 20h10.41.039419 +0530,
27,50,21,12,0,84,2,151.07312762498623,,,,,,,,,151.0589274999802,151.07312762498623,152.0565368749667,152.0565368749667,152.0637628340046,152.76794991700444,l,0.7007808749913238,None,,,,,AR,001,2024-11-17_20h07.28.757,v7,2024.1.5,None,2024-11-17 20h10.41.039419 +0530,
15,35,13,12,1,85,1,152.77940841700183,,,,,,,,,152.76874949998455,152.77940841700183,153.76478324999334,153.76478324999334,153.77322795899818,154.56508483400103,l,0.7948194170021452,None,,,,,AR,001,2024-11-17_20h07.28.757,v7,2024.1.5,None,2024-11-17 20h10.41.039419 +0530,
78,80,162,12,2,86,6,154.57928570901277,,,,,,,,,154.56594554201,154.57928570901277,155.56602262496017,155.56602262496017,155.5730999999796,156.1802274590009,t,0.6102672910201363,None,,,,,AR,001,2024-11-17_20h07.28.757,v7,2024.1.5,None,2024-11-17 20h10.41.039419 +0530,
11,30,7,12,3,87,0,156.19293404195923,,,,,,,,,156.1809310420067,156.19293404195923,157.1800918339868,157.1800918339868,157.19000349997077,157.94830899999943,l,0.7642707079648972,None,,,,,AR,001,2024-11-17_20h07.28.757,v7,2024.1.5,None,2024-11-17 20h10.41.039419 +0530,
67,75,119,12,4,88,5,157.9625834589824,,,,,,,,,157.9491667500115,157.9625834589824,158.94889070896897,158.94889070896897,158.95601383398753,159.44819541700417,t,0.49515625002095476,None,,,,,AR,001,2024-11-17_20h07.28.757,v7,2024.1.5,None,2024-11-17 20h10.41.039419 +0530,
40,55,62,12,5,89,3,159.4624134170008,,,,,,,,,159.4489899170003,159.4624134170008,160.44836829201085,160.44836829201085,160.45668158400804,162.07548558397684,t,1.6231617499724962,None,,,,,AR,001,2024-11-17_20h07.28.757,v7,2024.1.5,None,2024-11-17 20h10.41.039419 +0530,
49,60,89,12,6,90,4,162.09159895899938,,,,,,,,,162.07644099998288,162.09159895899938,163.07351654197555,163.07351654197555,163.09013333398616,163.66502874996513,t,0.5893117089872248,None,,,,,AR,001,2024-11-17_20h07.28.757,v7,2024.1.5,None,2024-11-17 20h10.41.039419 +0530,
67,75,119,13,0,91,5,163.67935699998634,,,,,,,,,163.66580558399437,163.67935699998634,164.6652274999651,164.6652274999651,164.67323329200735,165.23201999999583,t,0.5616916659637354,None,,,,,AR,001,2024-11-17_20h07.28.757,v7,2024.1.5,None,2024-11-17 20h10.41.039419 +0530,
78,80,162,13,1,92,6,165.24656833399786,,,,,,,,,165.23296216700692,165.24656833399786,166.23199337499682,166.23199337499682,166.24025604198687,166.74183995899512,t,0.5054242090554908,None,,,,,AR,001,2024-11-17_20h07.28.757,v7,2024.1.5,None,2024-11-17 20h10.41.039419 +0530,
27,50,21,13,2,93,2,166.7570647500106,,,,,,,,,166.74277449998772,166.7570647500106,167.74026204197435,167.74026204197435,167.74714012496406,168.42529579199618,l,0.6742965829907916,None,,,,,AR,001,2024-11-17_20h07.28.757,v7,2024.1.5,None,2024-11-17 20h10.41.039419 +0530,
11,30,7,13,3,94,0,168.4403447919758,,,,,,,,,168.42608366697095,168.4403447919758,169.42361512500793,169.42361512500793,169.43114595900988,170.0319834999973,l,0.6062458750093356,None,,,,,AR,001,2024-11-17_20h07.28.757,v7,2024.1.5,None,2024-11-17 20h10.41.039419 +0530,
49,60,89,13,4,95,4,170.04646637500264,,,,,,,,,170.0329223749577,170.04646637500264,171.03266720898682,171.03266720898682,171.03990491700824,171.75890554196667,t,0.7157451669918373,None,,,,,AR,001,2024-11-17_20h07.28.757,v7,2024.1.5,None,2024-11-17 20h10.41.039419 +0530,
40,55,62,13,5,96,3,171.77390999998897,,,,,,,,,171.75984858395532,171.77390999998897,172.75714787497418,172.75714787497418,172.76464266696712,173.82597954198718,t,1.0645397910266183,None,,,,,AR,001,2024-11-17_20h07.28.757,v7,2024.1.5,None,2024-11-17 20h10.41.039419 +0530,
15,35,13,13,6,97,1,173.84025641699554,,,,,,,,,173.82682449999265,173.84025641699554,174.82385300000897,174.82385300000897,174.83063208399108,175.14232162496774,l,0.3102058329968713,None,,,,,AR,001,2024-11-17_20h07.28.757,v7,2024.1.5,None,2024-11-17 20h10.41.039419 +0530,
,,,,,,,,,,,,,,,,,,,,,,,,,175.14297895896016,175.15234495897312,175.64598599995952,175.64142712496687,AR,001,2024-11-17_20h07.28.757,v7,2024.1.5,None,2024-11-17 20h10.41.039419 +0530,
