reward_today,future_reward,delay,trials.thisRepN,trials.thisTrialN,trials.thisN,trials.thisIndex,thisRow.t,notes,Ins.started,text_3.started,key_resp_2.started,Ins.stopped,key_resp_2.keys,key_resp_2.rt,key_resp_2.duration,trial.started,Fixation.started,text.started,key_resp.started,Fixation.stopped,trial.stopped,key_resp.keys,key_resp.rt,key_resp.duration,thanks.started,text_2.started,text_2.stopped,thanks.stopped,participant,session,date,expName,psychopyVersion,frameRate,expStart,
,,,,,,,,,0.011609582987148315,0.03248820797307417,0.03248820797307417,1.9735465829726309,space,1.908621000009589,None,,,,,,,,,,,,,,PB,001,2024-11-17_20h07.28.757,v7,2024.1.5,None,2024-11-17 20h07.37.081909 +0530,
78,80,162,0,0,0,6,2.0064442500006407,,,,,,,,,1.9842087919823825,2.0064442500006407,2.971968707977794,2.971968707977794,3.0032640830031596,3.8544639999745414,t,0.874880499963183,None,,,,,PB,001,2024-11-17_20h07.28.757,v7,2024.1.5,None,2024-11-17 20h07.37.081909 +0530,
11,30,7,0,1,1,0,3.8714775419794023,,,,,,,,,3.8559389999718405,3.8714775419794023,4.855144666973501,4.855144666973501,4.862617207982112,5.357757958001457,l,0.49165962502593175,None,,,,,PB,001,2024-11-17_20h07.28.757,v7,2024.1.5,None,2024-11-17 20h07.37.081909 +0530,
40,55,62,0,2,2,3,5.372104250011034,,,,,,,,,5.358576916973107,5.372104250011034,6.354423041979317,6.354423041979317,6.369115167006385,6.787976624967996,t,0.42620920797344297,None,,,,,PB,001,2024-11-17_20h07.28.757,v7,2024.1.5,None,2024-11-17 20h07.37.081909 +0530,
27,50,21,0,3,3,2,6.803291167016141,,,,,,,,,6.788929958012886,6.803291167016141,7.787541042023804,7.787541042023804,7.796100042003673,8.23119612497976,l,0.43855537503259256,None,,,,,PB,001,2024-11-17_20h07.28.757,v7,2024.1.5,None,2024-11-17 20h07.37.081909 +0530,
67,75,119,0,4,4,5,8.247838374983985,,,,,,,,,8.232224249979481,8.247838374983985,9.22906491701724,9.22906491701724,9.246187667013146,9.671407916990574,t,0.43554716696962714,None,,,,,PB,001,2024-11-17_20h07.28.757,v7,2024.1.5,None,2024-11-17 20h07.37.081909 +0530,
49,60,89,0,5,5,4,9.686245542019606,,,,,,,,,9.67237937496975,9.686245542019606,10.671201042016037,10.671201042016037,10.679533082991838,11.214891417010222,t,0.5372012500301935,None,,,,,PB,001,2024-11-17_20h07.28.757,v7,2024.1.5,None,2024-11-17 20h07.37.081909 +0530,
15,35,13,0,6,6,1,11.237033916986547,,,,,,,,,11.215832667017821,11.237033916986547,12.213354250008706,12.213354250008706,12.229734292021021,12.67150437500095,l,0.4522067499929108,None,,,,,PB,001,2024-11-17_20h07.28.757,v7,2024.1.5,None,2024-11-17 20h07.37.081909 +0530,
40,55,62,1,0,7,3,12.686256291985046,,,,,,,,,12.67230550001841,12.686256291985046,13.671461249992717,13.671461249992717,13.67974204197526,14.114639542007353,t,0.43622170796152204,None,,,,,PB,001,2024-11-17_20h07.28.757,v7,2024.1.5,None,2024-11-17 20h07.37.081909 +0530,
67,75,119,1,1,8,5,14.12951283302391,,,,,,,,,14.115442416979931,14.12951283302391,15.1130387079902,15.1130387079902,15.12003112497041,15.615075042005628,t,0.49735054100165144,None,,,,,PB,001,2024-11-17_20h07.28.757,v7,2024.1.5,None,2024-11-17 20h07.37.081909 +0530,
49,60,89,1,2,9,4,15.630500125000253,,,,,,,,,15.616040457971394,15.630500125000253,16.613161624991335,16.613161624991335,16.62003445799928,17.321004416968208,t,0.7012409589951858,None,,,,,PB,001,2024-11-17_20h07.28.757,v7,2024.1.5,None,2024-11-17 20h07.37.081909 +0530,
11,30,7,1,3,10,0,17.33471725002164,,,,,,,,,17.321807125001214,17.33471725002164,18.321614083019085,18.321614083019085,18.32981700001983,18.815046791976783,l,0.4851749999797903,None,,,,,PB,001,2024-11-17_20h07.28.757,v7,2024.1.5,None,2024-11-17 20h07.37.081909 +0530,
15,35,13,1,4,11,1,18.830305583018344,,,,,,,,,18.815923082991503,18.830305583018344,19.813161958009005,19.813161958009005,19.82023879198823,20.408234082977287,l,0.5840720000560395,None,,,,,PB,001,2024-11-17_20h07.28.757,v7,2024.1.5,None,2024-11-17 20h07.37.081909 +0530,
27,50,21,1,5,12,2,20.419621500012,,,,,,,,,20.409047042019665,20.419621500012,21.406347208016086,21.406347208016086,21.413361167011317,21.86524987500161,t,0.4518325839890167,None,,,,,PB,001,2024-11-17_20h07.28.757,v7,2024.1.5,None,2024-11-17 20h07.37.081909 +0530,
78,80,162,1,6,13,6,21.880314583017025,,,,,,,,,21.86629674996948,21.880314583017025,22.863225166976918,22.863225166976918,22.869962457974907,23.388953957997728,l,0.5214291249867529,None,,,,,PB,001,2024-11-17_20h07.28.757,v7,2024.1.5,None,2024-11-17 20h07.37.081909 +0530,
78,80,162,2,0,14,6,23.399631624983158,,,,,,,,,23.38991279201582,23.399631624983158,24.388314625015482,24.388314625015482,24.39675229199929,25.398454917012714,t,1.0031905409996398,None,,,,,PB,001,2024-11-17_20h07.28.757,v7,2024.1.5,None,2024-11-17 20h07.37.081909 +0530,
49,60,89,2,1,15,4,25.414193541975692,,,,,,,,,25.39941466698656,25.414193541975692,26.39678620797349,26.39678620797349,26.403789291973226,27.39196079201065,t,0.9840485419845209,None,,,,,PB,001,2024-11-17_20h07.28.757,v7,2024.1.5,None,2024-11-17 20h07.37.081909 +0530,
40,55,62,2,2,16,3,27.40395437501138,,,,,,,,,27.392787125019822,27.40395437501138,28.38930054201046,28.38930054201046,28.396222667011898,29.771595957980026,t,1.3754504999960773,None,,,,,PB,001,2024-11-17_20h07.28.757,v7,2024.1.5,None,2024-11-17 20h07.37.081909 +0530,
15,35,13,2,3,17,1,29.785466416971758,,,,,,,,,29.772376667009667,29.785466416971758,30.772262541984674,30.772262541984674,30.77929612499429,31.49851479200879,l,0.7176851670374162,None,,,,,PB,001,2024-11-17_20h07.28.757,v7,2024.1.5,None,2024-11-17 20h07.37.081909 +0530,
11,30,7,2,4,18,0,31.51349083299283,,,,,,,,,31.499313833017368,31.51349083299283,32.496143249969464,32.496143249969464,32.50308145798044,33.03782220801804,l,0.5348537910031155,None,,,,,PB,001,2024-11-17_20h07.28.757,v7,2024.1.5,None,2024-11-17 20h07.37.081909 +0530,
27,50,21,2,5,19,2,33.05208691698499,,,,,,,,,33.03862904198468,33.05208691698499,34.039267708023544,34.039267708023544,34.04646495799534,34.471947417012416,l,0.4294356660102494,None,,,,,PB,001,2024-11-17_20h07.28.757,v7,2024.1.5,None,2024-11-17 20h07.37.081909 +0530,
67,75,119,2,6,20,5,34.48645041696727,,,,,,,,,34.472902874986175,34.48645041696727,35.47208441700786,35.47208441700786,35.47945924999658,36.47190975002013,t,0.9938873749924824,None,,,,,PB,001,2024-11-17_20h07.28.757,v7,2024.1.5,None,2024-11-17 20h07.37.081909 +0530,
15,35,13,3,0,21,1,36.48640437499853,,,,,,,,,36.472697749966756,36.48640437499853,37.47200750000775,37.47200750000775,37.48036254197359,38.02149583300343,l,0.5431244590436108,None,,,,,PB,001,2024-11-17_20h07.28.757,v7,2024.1.5,None,2024-11-17 20h07.37.081909 +0530,
78,80,162,3,1,22,6,38.035193208022974,,,,,,,,,38.02229133300716,38.035193208022974,39.02227479201974,39.02227479201974,39.030443708004896,39.63880037498893,t,0.6093491250067018,None,,,,,PB,001,2024-11-17_20h07.28.757,v7,2024.1.5,None,2024-11-17 20h07.37.081909 +0530,
40,55,62,3,2,23,3,39.65331870800583,,,,,,,,,39.6397558330209,39.65331870800583,40.63976070797071,40.63976070797071,40.64682391699171,42.18240541697014,t,1.531685333000496,None,,,,,PB,001,2024-11-17_20h07.28.757,v7,2024.1.5,None,2024-11-17 20h07.37.081909 +0530,
49,60,89,3,3,24,4,42.197456041991245,,,,,,,,,42.18319466698449,42.197456041991245,43.18053429201245,43.18053429201245,43.188100082974415,44.28195824997965,t,1.094780208019074,None,,,,,PB,001,2024-11-17_20h07.28.757,v7,2024.1.5,None,2024-11-17 20h07.37.081909 +0530,
11,30,7,3,4,25,0,44.29730649996782,,,,,,,,,44.28276637499221,44.29730649996782,45.28065349999815,45.28065349999815,45.28799754200736,45.93962341698352,l,0.6552037500077859,None,,,,,PB,001,2024-11-17_20h07.28.757,v7,2024.1.5,None,2024-11-17 20h07.37.081909 +0530,
27,50,21,3,5,26,2,45.95356583298417,,,,,,,,,45.94043249997776,45.95356583298417,46.94038483296754,46.94038483296754,46.94752616697224,47.465944374969695,l,0.5166817919816822,None,,,,,PB,001,2024-11-17_20h07.28.757,v7,2024.1.5,None,2024-11-17 20h07.37.081909 +0530,
67,75,119,3,6,27,5,47.48055924999062,,,,,,,,,47.46681237500161,47.48055924999062,48.46397154201986,48.46397154201986,48.47104600002058,48.933123582974076,t,0.46008504199562594,None,,,,,PB,001,2024-11-17_20h07.28.757,v7,2024.1.5,None,2024-11-17 20h07.37.081909 +0530,
67,75,119,4,0,28,5,48.943404917023145,,,,,,,,,48.93416991701815,48.943404917023145,49.9307753330213,49.9307753330213,49.93781366699841,50.722229167004116,t,0.7893152089673094,None,,,,,PB,001,2024-11-17_20h07.28.757,v7,2024.1.5,None,2024-11-17 20h07.37.081909 +0530,
27,50,21,4,1,29,2,50.73693941702368,,,,,,,,,50.72304800001439,50.73693941702368,51.72353449999355,51.72353449999355,51.73068858298939,52.72662179201143,l,0.9916987919714302,None,,,,,PB,001,2024-11-17_20h07.28.757,v7,2024.1.5,None,2024-11-17 20h07.37.081909 +0530,
49,60,89,4,2,30,4,52.73844312498113,,,,,,,,,52.72742216702318,52.73844312498113,53.723513083008584,53.723513083008584,53.73070974997245,54.53306812501978,t,0.7985560420202091,None,,,,,PB,001,2024-11-17_20h07.28.757,v7,2024.1.5,None,2024-11-17 20h07.37.081909 +0530,
78,80,162,4,3,31,6,54.549547916976735,,,,,,,,,54.534095583017915,54.549547916976735,55.53095587500138,55.53095587500138,55.54710341698956,57.0224870829843,t,1.4846316660405137,None,,,,,PB,001,2024-11-17_20h07.28.757,v7,2024.1.5,None,2024-11-17 20h07.37.081909 +0530,
11,30,7,4,4,32,0,57.03664670797298,,,,,,,,,57.02332220796961,57.03664670797298,58.013997333007865,58.013997333007865,58.03107095800806,58.666127957985736,l,0.6428530419943854,None,,,,,PB,001,2024-11-17_20h07.28.757,v7,2024.1.5,None,2024-11-17 20h07.37.081909 +0530,
40,55,62,4,5,33,3,58.68164608301595,,,,,,,,,58.66709704202367,58.68164608301595,59.66455216699978,59.66455216699978,59.671523791970685,60.5227482499904,t,0.8514789170003496,None,,,,,PB,001,2024-11-17_20h07.28.757,v7,2024.1.5,None,2024-11-17 20h07.37.081909 +0530,
15,35,13,4,6,34,1,60.537412207981106,,,,,,,,,60.523693041992374,60.537412207981106,61.52340541698504,61.52340541698504,61.53047987498576,62.25599570799386,l,0.7258277079672553,None,,,,,PB,001,2024-11-17_20h07.28.757,v7,2024.1.5,None,2024-11-17 20h07.37.081909 +0530,
49,60,89,5,0,35,4,62.27116358297644,,,,,,,,,62.25680504197953,62.27116358297644,63.25648183299927,63.25648183299927,63.263718125002924,64.40599529200699,t,1.1430937919649296,None,,,,,PB,001,2024-11-17_20h07.28.757,v7,2024.1.5,None,2024-11-17 20h07.37.081909 +0530,
67,75,119,5,1,36,5,64.42002670798684,,,,,,,,,64.40678083297098,64.42002670798684,65.40792787499959,65.40792787499959,65.4148499579751,65.78546562499832,t,0.36401112499879673,None,,,,,PB,001,2024-11-17_20h07.28.757,v7,2024.1.5,None,2024-11-17 20h07.37.081909 +0530,
40,55,62,5,2,37,3,65.8022170420154,,,,,,,,,65.78631566697732,65.8022170420154,66.78125112497946,66.78125112497946,66.79789237497607,67.08342654199805,t,0.2914902920019813,None,,,,,PB,001,2024-11-17_20h07.28.757,v7,2024.1.5,None,2024-11-17 20h07.37.081909 +0530,
78,80,162,5,3,38,6,67.09830025001429,,,,,,,,,67.08438741700957,67.09830025001429,68.08135704201413,68.08135704201413,68.08895800000755,68.50659995799651,t,0.42298145801760256,None,,,,,PB,001,2024-11-17_20h07.28.757,v7,2024.1.5,None,2024-11-17 20h07.37.081909 +0530,
11,30,7,5,4,39,0,68.52126454201061,,,,,,,,,68.50755120802205,68.52126454201061,69.50711262499681,69.50711262499681,69.51400233298773,70.0892505000229,l,0.5755075000342913,None,,,,,PB,001,2024-11-17_20h07.28.757,v7,2024.1.5,None,2024-11-17 20h07.37.081909 +0530,
15,35,13,5,5,40,1,70.10318087501219,,,,,,,,,70.09004337497754,70.10318087501219,71.09055845800322,71.09055845800322,71.09763745800592,71.5833785830182,l,0.4825243749655783,None,,,,,PB,001,2024-11-17_20h07.28.757,v7,2024.1.5,None,2024-11-17 20h07.37.081909 +0530,
27,50,21,5,6,41,2,71.59829670801992,,,,,,,,,71.58422179199988,71.59829670801992,72.58154791698325,72.58154791698325,72.58864483301295,72.83329645800404,l,0.24684012500802055,None,,,,,PB,001,2024-11-17_20h07.28.757,v7,2024.1.5,None,2024-11-17 20h07.37.081909 +0530,
40,55,62,6,0,42,3,72.84927154198522,,,,,,,,,72.83425249997526,72.84927154198522,73.83145804196829,73.83145804196829,73.84838279196993,74.10627416701755,l,0.27106670796638355,None,,,,,PB,001,2024-11-17_20h07.28.757,v7,2024.1.5,None,2024-11-17 20h07.37.081909 +0530,
49,60,89,6,1,43,4,74.12022512499243,,,,,,,,,74.10705891699763,74.12022512499243,75.10739274998195,75.10739274998195,75.11457795801107,75.33345937501872,t,0.22129354201024398,None,,,,,PB,001,2024-11-17_20h07.28.757,v7,2024.1.5,None,2024-11-17 20h07.37.081909 +0530,
67,75,119,6,2,44,5,75.34841924998909,,,,,,,,,75.3344271670212,75.34841924998909,76.33151987497695,76.33151987497695,76.33912041701842,76.56651066697668,t,0.2285208330140449,None,,,,,PB,001,2024-11-17_20h07.28.757,v7,2024.1.5,None,2024-11-17 20h07.37.081909 +0530,
78,80,162,6,3,45,6,76.58154774998548,,,,,,,,,76.56747379200533,76.58154774998548,77.56493929197313,77.56493929197313,77.57194666698342,77.8233476249734,t,0.25163408397929743,None,,,,,PB,001,2024-11-17_20h07.28.757,v7,2024.1.5,None,2024-11-17 20h07.37.081909 +0530,
15,35,13,6,4,46,1,77.83775829197839,,,,,,,,,77.82430329197086,77.83775829197839,78.82340420800028,78.82340420800028,78.83170216699364,79.32326475001173,l,0.4978928330237977,None,,,,,PB,001,2024-11-17_20h07.28.757,v7,2024.1.5,None,2024-11-17 20h07.37.081909 +0530,
27,50,21,6,5,47,2,79.33700579201104,,,,,,,,,79.32404908299213,79.33700579201104,80.32377629197435,80.32377629197435,80.33075966697652,80.63366166700143,l,0.30452212499221787,None,,,,,PB,001,2024-11-17_20h07.28.757,v7,2024.1.5,None,2024-11-17 20h07.37.081909 +0530,
11,30,7,6,6,48,0,80.64867879200028,,,,,,,,,80.63458304200321,80.64867879200028,81.63168950000545,81.63168950000545,81.63773191696964,81.9739482079749,l,0.3403617499861866,None,,,,,PB,001,2024-11-17_20h07.28.757,v7,2024.1.5,None,2024-11-17 20h07.37.081909 +0530,
27,50,21,7,0,49,2,81.98890941700665,,,,,,,,,81.97487854200881,81.98890941700665,82.97266858298099,82.97266858298099,82.98120083299,84.47325829201145,l,1.4936472499975935,None,,,,,PB,001,2024-11-17_20h07.28.757,v7,2024.1.5,None,2024-11-17 20h07.37.081909 +0530,
78,80,162,7,1,50,6,84.4876664999756,,,,,,,,,84.47405020799488,84.4876664999756,85.47394312499091,85.47394312499091,85.4810000419966,85.87346266699024,t,0.3973542909952812,None,,,,,PB,001,2024-11-17_20h07.28.757,v7,2024.1.5,None,2024-11-17 20h07.37.081909 +0530,
40,55,62,7,2,51,3,85.887409167015,,,,,,,,,85.8742498329957,85.887409167015,86.87466916698031,86.87466916698031,86.88185620796867,87.10736008296954,t,0.22742883302271366,None,,,,,PB,001,2024-11-17_20h07.28.757,v7,2024.1.5,None,2024-11-17 20h07.37.081909 +0530,
67,75,119,7,3,52,5,87.12140399997588,,,,,,,,,87.10823095799424,87.12140399997588,88.10777004197007,88.10777004197007,88.11470491701039,88.50111962499795,t,0.39136700000381097,None,,,,,PB,001,2024-11-17_20h07.28.757,v7,2024.1.5,None,2024-11-17 20h07.37.081909 +0530,
11,30,7,7,4,53,0,88.51682441699086,,,,,,,,,88.50208254199242,88.51682441699086,89.49897095799679,89.49897095799679,89.5148484170204,89.95709470799193,l,0.4545156669919379,None,,,,,PB,001,2024-11-17_20h07.28.757,v7,2024.1.5,None,2024-11-17 20h07.37.081909 +0530,
49,60,89,7,5,54,4,89.97177795798052,,,,,,,,,89.95806966698729,89.97177795798052,90.95874229201581,90.95874229201581,90.96577449998586,91.45701033301884,t,0.4909622920094989,None,,,,,PB,001,2024-11-17_20h07.28.757,v7,2024.1.5,None,2024-11-17 20h07.37.081909 +0530,
15,35,13,7,6,55,1,91.47221779200481,,,,,,,,,91.45797279197723,91.47221779200481,92.45792195800459,92.45792195800459,92.46498841699213,92.95107816701056,l,0.482900790986605,None,,,,,PB,001,2024-11-17_20h07.28.757,v7,2024.1.5,None,2024-11-17 20h07.37.081909 +0530,
40,55,62,8,0,56,3,92.96666824998101,,,,,,,,,92.95203666697489,92.96666824998101,93.94874129199889,93.94874129199889,93.96540241700131,94.85088791698217,t,0.8922877500299364,None,,,,,PB,001,2024-11-17_20h07.28.757,v7,2024.1.5,None,2024-11-17 20h07.37.081909 +0530,
15,35,13,8,1,57,1,94.86521324998466,,,,,,,,,94.85173337499145,94.86521324998466,95.84882258297876,95.84882258297876,95.85616633301834,96.75721433298895,l,0.9009661670424975,None,,,,,PB,001,2024-11-17_20h07.28.757,v7,2024.1.5,None,2024-11-17 20h07.37.081909 +0530,
11,30,7,8,2,58,0,96.77210083301179,,,,,,,,,96.75812462501926,96.77210083301179,97.74850037501892,97.74850037501892,97.76552954199724,98.56745204201434,l,0.8132876249728724,None,,,,,PB,001,2024-11-17_20h07.28.757,v7,2024.1.5,None,2024-11-17 20h07.37.081909 +0530,
49,60,89,8,3,59,4,98.58366829197621,,,,,,,,,98.56843641697196,98.58366829197621,99.56562395801302,99.56562395801302,99.58222174999537,100.18385779199889,t,0.6117002500104718,None,,,,,PB,001,2024-11-17_20h07.28.757,v7,2024.1.5,None,2024-11-17 20h07.37.081909 +0530,
67,75,119,8,4,60,5,100.1969708329998,,,,,,,,,100.18449504201999,100.1969708329998,101.18273137498181,101.18273137498181,101.19119337497978,101.95076375000644,t,0.7587410419946536,None,,,,,PB,001,2024-11-17_20h07.28.757,v7,2024.1.5,None,2024-11-17 20h07.37.081909 +0530,
27,50,21,8,5,61,2,101.96656837500632,,,,,,,,,101.9517203749856,101.96656837500632,102.94901720801136,102.94901720801136,102.95621329196729,103.76748974999646,l,0.8129167910083197,None,,,,,PB,001,2024-11-17_20h07.28.757,v7,2024.1.5,None,2024-11-17 20h07.37.081909 +0530,
78,80,162,8,6,62,6,103.78264400002081,,,,,,,,,103.76844520797022,103.78264400002081,104.76573333301349,104.76573333301349,104.77260258299066,105.64256987499539,t,0.8741390420473181,None,,,,,PB,001,2024-11-17_20h07.28.757,v7,2024.1.5,None,2024-11-17 20h07.37.081909 +0530,
11,30,7,9,0,63,0,105.65689024998574,,,,,,,,,105.64353829197353,105.65689024998574,106.64179520797916,106.64179520797916,106.64905033301329,108.35134958301205,l,1.7050582090159878,None,,,,,PB,001,2024-11-17_20h07.28.757,v7,2024.1.5,None,2024-11-17 20h07.37.081909 +0530,
40,55,62,9,1,64,3,108.36662849999266,,,,,,,,,108.35225574998185,108.36662849999266,109.34931012499146,109.34931012499146,109.35652004199801,110.09164412500104,t,0.7358560840366408,None,,,,,PB,001,2024-11-17_20h07.28.757,v7,2024.1.5,None,2024-11-17 20h07.37.081909 +0530,
27,50,21,9,2,65,2,110.10659425001359,,,,,,,,,110.09252345800633,110.10659425001359,111.09143954201136,111.09143954201136,111.09841570799472,111.79087454196997,l,0.6927971249679103,None,,,,,PB,001,2024-11-17_20h07.28.757,v7,2024.1.5,None,2024-11-17 20h07.37.081909 +0530,
15,35,13,9,3,66,1,111.80646912497468,,,,,,,,,111.79167912498815,111.80646912497468,112.79147724999348,112.79147724999348,112.79862845799653,113.35823700000765,l,0.5594948750222102,None,,,,,PB,001,2024-11-17_20h07.28.757,v7,2024.1.5,None,2024-11-17 20h07.37.081909 +0530,
67,75,119,9,4,67,5,113.37627654196694,,,,,,,,,113.35923050000565,113.37627654196694,114.35823504201835,114.35823504201835,114.3732480420149,114.90743829199346,t,0.5094764170353301,None,,,,,PB,001,2024-11-17_20h07.28.757,v7,2024.1.5,None,2024-11-17 20h07.37.081909 +0530,
78,80,162,9,5,68,6,114.91894449997926,,,,,,,,,114.90807816700544,114.91894449997926,115.9080684579676,115.9080684579676,115.9154426669702,116.57868570799474,t,0.6589022920234129,None,,,,,PB,001,2024-11-17_20h07.28.757,v7,2024.1.5,None,2024-11-17 20h07.37.081909 +0530,
49,60,89,9,6,69,4,116.5910906670033,,,,,,,,,116.579540250008,116.5910906670033,117.57531712501077,117.57531712501077,117.60003095801221,118.17432350001764,t,0.5940325409756042,None,,,,,PB,001,2024-11-17_20h07.28.757,v7,2024.1.5,None,2024-11-17 20h07.37.081909 +0530,
15,35,13,10,0,70,1,118.18830308300676,,,,,,,,,118.17512170801638,118.18830308300676,119.17540337500395,119.17540337500395,119.1824316669954,119.75220462499419,l,0.5687964169774204,None,,,,,PB,001,2024-11-17_20h07.28.757,v7,2024.1.5,None,2024-11-17 20h07.37.081909 +0530,
40,55,62,10,1,71,3,119.76678829197772,,,,,,,,,119.75305329199182,119.76678829197772,120.74960520799505,120.74960520799505,120.75731566699687,121.2915043749963,t,0.5343504169723019,None,,,,,PB,001,2024-11-17_20h07.28.757,v7,2024.1.5,None,2024-11-17 20h07.37.081909 +0530,
27,50,21,10,2,72,2,121.3068670000066,,,,,,,,,121.2924911250011,121.3068670000066,122.29189633298665,122.29189633298665,122.29873204202158,123.02494329202455,l,0.7297094999812543,None,,,,,PB,001,2024-11-17_20h07.28.757,v7,2024.1.5,None,2024-11-17 20h07.37.081909 +0530,
78,80,162,10,3,73,6,123.03936891700141,,,,,,,,,123.02588741696673,123.03936891700141,124.02534400002332,124.02534400002332,124.03243295801803,124.70154991699383,t,0.6684678340097889,None,,,,,PB,001,2024-11-17_20h07.28.757,v7,2024.1.5,None,2024-11-17 20h07.37.081909 +0530,
67,75,119,10,4,74,5,124.71597716701217,,,,,,,,,124.70240487501724,124.71597716701217,125.69971145800082,125.69971145800082,125.70699224999407,125.97442841698648,t,0.2719909169827588,None,,,,,PB,001,2024-11-17_20h07.28.757,v7,2024.1.5,None,2024-11-17 20h07.37.081909 +0530,
11,30,7,10,5,75,0,125.98876966699027,,,,,,,,,125.9752188330167,125.98876966699027,126.96541004197206,126.96541004197206,126.98317241697805,127.38524004200008,l,0.4116059999796562,None,,,,,PB,001,2024-11-17_20h07.28.757,v7,2024.1.5,None,2024-11-17 20h07.37.081909 +0530,
49,60,89,10,6,76,4,127.40096245799214,,,,,,,,,127.38622570800362,127.40096245799214,128.38312554202275,128.38312554202275,128.39978129201336,128.93507695797598,t,0.5464954170165583,None,,,,,PB,001,2024-11-17_20h07.28.757,v7,2024.1.5,None,2024-11-17 20h07.37.081909 +0530,
40,55,62,11,0,77,3,128.95052508299705,,,,,,,,,128.93604108301224,128.95052508299705,129.93324854201637,129.93324854201637,129.94085845799418,130.28506366699003,t,0.3476280419854447,None,,,,,PB,001,2024-11-17_20h07.28.757,v7,2024.1.5,None,2024-11-17 20h07.37.081909 +0530,
15,35,13,11,1,78,1,130.30052741698455,,,,,,,,,130.28597324999282,130.30052741698455,131.28319604200078,131.28319604200078,131.2900265000062,131.63472262502182,l,0.3452796249766834,None,,,,,PB,001,2024-11-17_20h07.28.757,v7,2024.1.5,None,2024-11-17 20h07.37.081909 +0530,
67,75,119,11,2,79,5,131.64919416699558,,,,,,,,,131.63551933300914,131.64919416699558,132.63320949999616,132.63320949999616,132.64001858298434,133.22448879200965,t,0.5860452500055544,None,,,,,PB,001,2024-11-17_20h07.28.757,v7,2024.1.5,None,2024-11-17 20h07.37.081909 +0530,
49,60,89,11,3,80,4,133.23846729198704,,,,,,,,,133.22527574998094,133.23846729198704,134.22545475000516,134.22545475000516,134.23256129201036,134.8523639580235,t,0.6159595829667524,None,,,,,PB,001,2024-11-17_20h07.28.757,v7,2024.1.5,None,2024-11-17 20h07.37.081909 +0530,
27,50,21,11,4,81,2,134.86772987496806,,,,,,,,,134.85331666702405,134.86772987496806,135.84982041700277,135.84982041700277,135.86673079198226,136.2579924580059,l,0.40443799999775365,None,,,,,PB,001,2024-11-17_20h07.28.757,v7,2024.1.5,None,2024-11-17 20h07.37.081909 +0530,
78,80,162,11,5,82,6,136.2723780000233,,,,,,,,,136.25878654199187,136.2723780000233,137.25860250002006,137.25860250002006,137.26682687498396,137.7252224580152,t,0.46463391702855006,None,,,,,PB,001,2024-11-17_20h07.28.757,v7,2024.1.5,None,2024-11-17 20h07.37.081909 +0530,
11,30,7,11,6,83,0,137.73946670797886,,,,,,,,,137.72618050000165,137.73946670797886,138.72596087498823,138.72596087498823,138.73328320798464,139.20870208297856,l,0.47598054201807827,None,,,,,PB,001,2024-11-17_20h07.28.757,v7,2024.1.5,None,2024-11-17 20h07.37.081909 +0530,
11,30,7,12,0,84,0,139.22022191697033,,,,,,,,,139.20965362497373,139.22022191697033,140.2090605419944,140.2090605419944,140.21598454198102,140.65217245800886,l,0.4378154579899274,None,,,,,PB,001,2024-11-17_20h07.28.757,v7,2024.1.5,None,2024-11-17 20h07.37.081909 +0530,
40,55,62,12,1,85,3,140.66670466697542,,,,,,,,,140.6530777500011,140.66670466697542,141.65020233299583,141.65020233299583,141.65697162499418,142.22895316698123,t,0.5674735420034267,None,,,,,PB,001,2024-11-17_20h07.28.757,v7,2024.1.5,None,2024-11-17 20h07.37.081909 +0530,
15,35,13,12,2,86,1,142.24042004201328,,,,,,,,,142.22975016699638,142.24042004201328,143.22651033301372,143.22651033301372,143.25109404197428,143.62570704199607,l,0.3945714170113206,None,,,,,PB,001,2024-11-17_20h07.28.757,v7,2024.1.5,None,2024-11-17 20h07.37.081909 +0530,
27,50,21,12,3,87,2,143.6408564579906,,,,,,,,,143.62667504197452,143.6408564579906,144.6253896249691,144.6253896249691,144.63307475001784,145.43535325000994,l,0.8001362920040265,None,,,,,PB,001,2024-11-17_20h07.28.757,v7,2024.1.5,None,2024-11-17 20h07.37.081909 +0530,
49,60,89,12,4,88,4,145.4504633329925,,,,,,,,,145.43628650001483,145.4504633329925,146.4347289169673,146.4347289169673,146.44250408298103,147.03538395802025,t,0.5966431249980815,None,,,,,PB,001,2024-11-17_20h07.28.757,v7,2024.1.5,None,2024-11-17 20h07.37.081909 +0530,
67,75,119,12,5,89,5,147.05017145798774,,,,,,,,,147.0362662919797,147.05017145798774,148.03379245800897,148.03379245800897,148.0406279580202,148.73581787501462,t,0.6965954169863835,None,,,,,PB,001,2024-11-17_20h07.28.757,v7,2024.1.5,None,2024-11-17 20h07.37.081909 +0530,
78,80,162,12,6,90,6,148.75127320800675,,,,,,,,,148.73666241700994,148.75127320800675,149.7338724579895,149.7338724579895,149.74149200000102,150.29236999998102,t,0.5551776250358671,None,,,,,PB,001,2024-11-17_20h07.28.757,v7,2024.1.5,None,2024-11-17 20h07.37.081909 +0530,
15,35,13,13,0,91,1,150.30716716701863,,,,,,,,,150.29330312501406,150.30716716701863,151.29264595801942,151.29264595801942,151.299492250022,151.75895266700536,l,0.4591634160024114,None,,,,,PB,001,2024-11-17_20h07.28.757,v7,2024.1.5,None,2024-11-17 20h07.37.081909 +0530,
27,50,21,13,1,92,2,151.77294162497856,,,,,,,,,151.7597305829986,151.77294162497856,152.75857925001765,152.75857925001765,152.76718879200052,153.1928087080014,l,0.42660862498451024,None,,,,,PB,001,2024-11-17_20h07.28.757,v7,2024.1.5,None,2024-11-17 20h07.37.081909 +0530,
78,80,162,13,2,93,6,153.20693658298114,,,,,,,,,153.19366108300164,153.20693658298114,154.1926647920045,154.1926647920045,154.2000100829755,154.82595504197525,t,0.6262484999606386,None,,,,,PB,001,2024-11-17_20h07.28.757,v7,2024.1.5,None,2024-11-17 20h07.37.081909 +0530,
11,30,7,13,3,94,0,154.84078241698444,,,,,,,,,154.82678429200314,154.84078241698444,155.8270584170241,155.8270584170241,155.83407687500585,156.36948516697157,l,0.5313119999482296,None,,,,,PB,001,2024-11-17_20h07.28.757,v7,2024.1.5,None,2024-11-17 20h07.37.081909 +0530,
49,60,89,13,4,95,4,156.38464008300798,,,,,,,,,156.37047308299225,156.38464008300798,157.3673376669758,157.3673376669758,157.3741651669843,157.90907770796912,t,0.5345487500308082,None,,,,,PB,001,2024-11-17_20h07.28.757,v7,2024.1.5,None,2024-11-17 20h07.37.081909 +0530,
67,75,119,13,5,96,5,157.92294462496648,,,,,,,,,157.90986825001892,157.92294462496648,158.90961629198864,158.90961629198864,158.91682874999242,159.35246612498304,t,0.432719458010979,None,,,,,PB,001,2024-11-17_20h07.28.757,v7,2024.1.5,None,2024-11-17 20h07.37.081909 +0530,
40,55,62,13,6,97,3,159.3680467500235,,,,,,,,,159.3534413750167,159.3680467500235,160.35078300000168,160.35078300000168,160.357673874998,160.9195832919795,t,0.5583103749668226,None,,,,,PB,001,2024-11-17_20h07.28.757,v7,2024.1.5,None,2024-11-17 20h07.37.081909 +0530,
,,,,,,,,,,,,,,,,,,,,,,,,,160.92017879197374,160.93015741702402,161.42236895801034,161.41821783297928,PB,001,2024-11-17_20h07.28.757,v7,2024.1.5,None,2024-11-17 20h07.37.081909 +0530,
