pos,corr_resp,trials.thisRepN,trials.thisTrialN,trials.thisN,trials.thisIndex,trials_2.thisRepN,trials_2.thisTrialN,trials_2.thisN,trials_2.thisIndex,thisRow.t,notes,Ins.started,text.started,key_resp_2.started,Ins.stopped,key_resp_2.keys,key_resp_2.rt,key_resp_2.duration,trial.started,fixation.started,line1.started,line2.started,line3.started,line4.started,fixation.stopped,probe.started,key_resp.started,trial.stopped,key_resp.keys,key_resp.corr,key_resp.rt,key_resp.duration,thnx.started,text_2.started,thnx.stopped,participant,session,date,expName,psychopyVersion,frameRate,expStart
,,,,,,,,,,,,0.067485875,0.299846916,0.299846916,3.643234208,space,3.23776475,None,,,,,,,,,,,,,,,,,,188792,1,2024-10-15_17h52.48.885,v4,2024.1.5,None,2024-10-15 17h53.01.392488 +0530
-150,z,0,0,0,0,,,,,3.8124495,,,,,,,,,3.667310916,3.8124495,4.691483958,4.691483958,4.691483958,4.691483958,4.8157805,5.637562291,5.637562291,6.514922541,z,1,0.874000667,None,,,,188792,1,2024-10-15_17h52.48.885,v4,2024.1.5,None,2024-10-15 17h53.01.392488 +0530
-50,x,0,1,1,1,,,,,6.52468575,,,,,,,,,6.516637375,6.52468575,7.516842583,7.516842583,7.516842583,7.516842583,7.525350916,8.512809583,8.512809583,9.00589575,x,1,0.482119083,None,,,,188792,1,2024-10-15_17h52.48.885,v4,2024.1.5,None,2024-10-15 17h53.01.392488 +0530
50,c,0,2,2,2,,,,,9.022027708,,,,,,,,,9.007029833,9.022027708,10.00496837,10.00496837,10.00496837,10.00496837,10.01295104,11.00448346,11.00448346,11.34738817,c,1,0.337744375,None,,,,188792,1,2024-10-15_17h52.48.885,v4,2024.1.5,None,2024-10-15 17h53.01.392488 +0530
150,v,0,3,3,3,,,,,11.35701917,,,,,,,,,11.34853196,11.35701917,12.34898579,12.34898579,12.34898579,12.34898579,12.35846492,13.35046779,13.35046779,14.03933133,v,1,0.685129584,None,,,,188792,1,2024-10-15_17h52.48.885,v4,2024.1.5,None,2024-10-15 17h53.01.392488 +0530
-150,z,1,0,4,0,,,,,14.06274121,,,,,,,,,14.04032475,14.06274121,15.03777354,15.03777354,15.03777354,15.03777354,15.05488617,16.03781129,16.03781129,16.33176312,z,1,0.292459625,None,,,,188792,1,2024-10-15_17h52.48.885,v4,2024.1.5,None,2024-10-15 17h53.01.392488 +0530
-50,x,1,1,5,1,,,,,16.34176029,,,,,,,,,16.33275417,16.34176029,17.33359587,17.33359587,17.33359587,17.33359587,17.35055387,18.32977762,18.32977762,18.68028458,x,1,0.3472175,None,,,,188792,1,2024-10-15_17h52.48.885,v4,2024.1.5,None,2024-10-15 17h53.01.392488 +0530
50,c,1,2,6,2,,,,,18.68878058,,,,,,,,,18.68133242,18.68878058,19.6793625,19.6793625,19.6793625,19.6793625,19.68909412,20.679791,20.679791,20.68962329,c,1,0.005815083,None,,,,188792,1,2024-10-15_17h52.48.885,v4,2024.1.5,None,2024-10-15 17h53.01.392488 +0530
150,v,1,3,7,3,,,,,20.69861967,,,,,,,,,20.69061104,20.69861967,21.68817167,21.68817167,21.68817167,21.68817167,21.69740696,22.68924892,22.68924892,23.99715062,v,1,1.302949583,None,,,,188792,1,2024-10-15_17h52.48.885,v4,2024.1.5,None,2024-10-15 17h53.01.392488 +0530
-150,z,2,0,8,0,,,,,24.02207437,,,,,,,,,23.99840854,24.02207437,24.99889633,24.99889633,24.99889633,24.99889633,25.02262333,25.99661808,25.99661808,26.29895113,z,1,0.298350375,None,,,,188792,1,2024-10-15_17h52.48.885,v4,2024.1.5,None,2024-10-15 17h53.01.392488 +0530
-50,x,2,1,9,1,,,,,26.30826217,,,,,,,,,26.30023233,26.30826217,27.29975937,27.29975937,27.29975937,27.29975937,27.30983142,28.29667746,28.29667746,28.34794829,x,1,0.04723725,None,,,,188792,1,2024-10-15_17h52.48.885,v4,2024.1.5,None,2024-10-15 17h53.01.392488 +0530
50,c,2,2,10,2,,,,,28.360174,,,,,,,,,28.34898625,28.360174,29.35177833,29.35177833,29.35177833,29.35177833,29.36148075,30.35006167,30.35006167,30.64723483,c,1,0.291855917,None,,,,188792,1,2024-10-15_17h52.48.885,v4,2024.1.5,None,2024-10-15 17h53.01.392488 +0530
150,v,2,3,11,3,,,,,30.67233142,,,,,,,,,30.64847417,30.67233142,31.64897867,31.64897867,31.64897867,31.64897867,31.67273325,32.64691442,32.64691442,33.00434112,v,1,0.332312042,None,,,,188792,1,2024-10-15_17h52.48.885,v4,2024.1.5,None,2024-10-15 17h53.01.392488 +0530
-150,z,3,0,12,0,,,,,33.01576029,,,,,,,,,33.00748104,33.01576029,34.00060467,34.00060467,34.00060467,34.00060467,34.01003542,35.00508487,35.00508487,35.33320183,z,1,0.323778458,None,,,,188792,1,2024-10-15_17h52.48.885,v4,2024.1.5,None,2024-10-15 17h53.01.392488 +0530
-50,x,3,1,13,1,,,,,35.35040521,,,,,,,,,35.33429783,35.35040521,36.33296283,36.33296283,36.33296283,36.33296283,36.34231646,37.3300565,37.3300565,37.390414,x,1,0.044003042,None,,,,188792,1,2024-10-15_17h52.48.885,v4,2024.1.5,None,2024-10-15 17h53.01.392488 +0530
50,c,3,2,14,2,,,,,37.40573154,,,,,,,,,37.39151387,37.40573154,38.38894875,38.38894875,38.38894875,38.38894875,38.40179133,39.38807833,39.38807833,39.69079246,c,1,0.2975595,None,,,,188792,1,2024-10-15_17h52.48.885,v4,2024.1.5,None,2024-10-15 17h53.01.392488 +0530
150,v,3,3,15,3,,,,,39.6994955,,,,,,,,,39.69183196,39.6994955,40.68908371,40.68908371,40.68908371,40.68908371,40.6966495,41.68861083,41.68861083,41.96436808,v,1,0.269412917,None,,,,188792,1,2024-10-15_17h52.48.885,v4,2024.1.5,None,2024-10-15 17h53.01.392488 +0530
-150,z,4,0,16,0,,,,,41.98884542,,,,,,,,,41.96559575,41.98884542,42.96674917,42.96674917,42.96674917,42.96674917,42.98975792,43.96515858,43.96515858,44.44757117,z,1,0.476110125,None,,,,188792,1,2024-10-15_17h52.48.885,v4,2024.1.5,None,2024-10-15 17h53.01.392488 +0530
-50,x,4,1,17,1,,,,,44.4560025,,,,,,,,,44.44858271,44.4560025,45.44928417,45.44928417,45.44928417,45.44928417,45.44928417,46.45009958,46.45009958,46.94960733,x,1,0.496381916,None,,,,188792,1,2024-10-15_17h52.48.885,v4,2024.1.5,None,2024-10-15 17h53.01.392488 +0530
50,c,4,2,18,2,,,,,46.95806675,,,,,,,,,46.95071187,46.95806675,47.95114371,47.95114371,47.95114371,47.95114371,47.96952479,48.94738337,48.94738337,49.32334946,c,1,0.372917042,None,,,,188792,1,2024-10-15_17h52.48.885,v4,2024.1.5,None,2024-10-15 17h53.01.392488 +0530
150,v,4,3,19,3,,,,,49.33156983,,,,,,,,,49.32434225,49.33156983,50.32242917,50.32242917,50.32242917,50.32242917,50.33158379,51.3220095,51.3220095,51.67862867,v,1,0.342774292,None,,,,188792,1,2024-10-15_17h52.48.885,v4,2024.1.5,None,2024-10-15 17h53.01.392488 +0530
-150,z,5,0,20,0,,,,,51.68928317,,,,,,,,,51.67974004,51.68928317,52.67240817,52.67240817,52.67240817,52.67240817,52.68097183,53.67234179,53.67234179,54.07374333,z,1,0.392704625,None,,,,188792,1,2024-10-15_17h52.48.885,v4,2024.1.5,None,2024-10-15 17h53.01.392488 +0530
-50,x,5,1,21,1,,,,,54.08267633,,,,,,,,,54.07475254,54.08267633,55.07383712,55.07383712,55.07383712,55.07383712,55.08787996,56.06659492,56.06659492,56.34181004,x,1,0.266687291,None,,,,188792,1,2024-10-15_17h52.48.885,v4,2024.1.5,None,2024-10-15 17h53.01.392488 +0530
50,c,5,2,22,2,,,,,56.35113904,,,,,,,,,56.34310137,56.35113904,57.35257121,57.35257121,57.35257121,57.35257121,57.35257121,58.33912462,58.33912462,58.65027108,c,1,0.306995792,None,,,,188792,1,2024-10-15_17h52.48.885,v4,2024.1.5,None,2024-10-15 17h53.01.392488 +0530
150,v,5,3,23,3,,,,,58.65999367,,,,,,,,,58.65128154,58.65999367,59.65349658,59.65349658,59.65349658,59.65349658,59.66697825,60.64793554,60.64793554,61.05715792,v,1,0.403888333,None,,,,188792,1,2024-10-15_17h52.48.885,v4,2024.1.5,None,2024-10-15 17h53.01.392488 +0530
-150,z,6,0,24,0,,,,,61.06553929,,,,,,,,,61.05815621,61.06553929,62.05038896,62.05038896,62.05038896,62.05038896,62.05943787,63.05688954,63.05688954,63.64796304,z,1,0.584894459,None,,,,188792,1,2024-10-15_17h52.48.885,v4,2024.1.5,None,2024-10-15 17h53.01.392488 +0530
-50,x,6,1,25,1,,,,,63.65654104,,,,,,,,,63.6489705,63.65654104,64.64977425,64.64977425,64.64977425,64.64977425,64.64977425,65.63994608,65.63994608,65.96478596,x,1,0.320136333,None,,,,188792,1,2024-10-15_17h52.48.885,v4,2024.1.5,None,2024-10-15 17h53.01.392488 +0530
50,c,6,2,26,2,,,,,65.97328971,,,,,,,,,65.96578725,65.97328971,66.96703017,66.96703017,66.96703017,66.96703017,66.96703017,67.96462242,67.96462242,68.25855062,c,1,0.283695458,None,,,,188792,1,2024-10-15_17h52.48.885,v4,2024.1.5,None,2024-10-15 17h53.01.392488 +0530
150,v,6,3,27,3,,,,,68.26487292,,,,,,,,,68.25962754,68.26487292,69.25645696,69.25645696,69.25645696,69.25645696,69.26487908,70.27388646,70.27388646,70.63190792,v,1,0.352536875,None,,,,188792,1,2024-10-15_17h52.48.885,v4,2024.1.5,None,2024-10-15 17h53.01.392488 +0530
-150,z,7,0,28,0,,,,,70.65648179,,,,,,,,,70.63310504,70.65648179,71.63395379,71.63395379,71.63395379,71.63395379,71.65740129,72.63254108,72.63254108,73.09080221,z,1,0.45306075,None,,,,188792,1,2024-10-15_17h52.48.885,v4,2024.1.5,None,2024-10-15 17h53.01.392488 +0530
-50,x,7,1,29,1,,,,,73.09906575,,,,,,,,,73.09178954,73.09906575,74.09114813,74.09114813,74.09114813,74.09114813,74.09114813,75.08973354,75.08973354,75.41531,x,1,0.319358833,None,,,,188792,1,2024-10-15_17h52.48.885,v4,2024.1.5,None,2024-10-15 17h53.01.392488 +0530
50,c,7,2,30,2,,,,,75.42627558,,,,,,,,,75.41637471,75.42627558,76.42282525,76.42282525,76.42282525,76.42282525,76.43256187,77.41501608,77.41501608,77.88575937,c,1,0.460186708,None,,,,188792,1,2024-10-15_17h52.48.885,v4,2024.1.5,None,2024-10-15 17h53.01.392488 +0530
150,v,7,3,31,3,,,,,77.89432225,,,,,,,,,77.88696442,77.89432225,78.8853,78.8853,78.8853,78.8853,78.89485058,79.88304996,79.88304996,80.19111771,v,1,0.301747375,None,,,,188792,1,2024-10-15_17h52.48.885,v4,2024.1.5,None,2024-10-15 17h53.01.392488 +0530
-150,z,8,0,32,0,,,,,80.19974808,,,,,,,,,80.19211083,80.19974808,81.18458883,81.18458883,81.18458883,81.18458883,81.19481679,82.22648104,82.22648104,82.75022396,z,1,0.521278,None,,,,188792,1,2024-10-15_17h52.48.885,v4,2024.1.5,None,2024-10-15 17h53.01.392488 +0530
-50,x,8,1,33,1,,,,,82.76140883,,,,,,,,,82.75143804,82.76140883,83.7514665,83.7514665,83.7514665,83.7514665,83.76219171,84.74978467,84.74978467,85.02866337,x,1,0.2697355,None,,,,188792,1,2024-10-15_17h52.48.885,v4,2024.1.5,None,2024-10-15 17h53.01.392488 +0530
50,c,8,2,34,2,,,,,85.03998221,,,,,,,,,85.02988267,85.03998221,86.0234075,86.0234075,86.0234075,86.0234075,86.03209387,87.02365962,87.02365962,87.39143625,c,1,0.364069875,None,,,,188792,1,2024-10-15_17h52.48.885,v4,2024.1.5,None,2024-10-15 17h53.01.392488 +0530
150,v,8,3,35,3,,,,,87.39998208,,,,,,,,,87.39246704,87.39998208,88.39019975,88.39019975,88.39019975,88.39019975,88.39882425,89.40733462,89.40733462,89.71528192,v,1,0.305831084,None,,,,188792,1,2024-10-15_17h52.48.885,v4,2024.1.5,None,2024-10-15 17h53.01.392488 +0530
-150,z,9,0,36,0,,,,,89.72375862,,,,,,,,,89.71630712,89.72375862,90.71739058,90.71739058,90.71739058,90.71739058,90.71739058,91.71892062,91.71892062,92.07459717,z,1,0.34811675,None,,,,188792,1,2024-10-15_17h52.48.885,v4,2024.1.5,None,2024-10-15 17h53.01.392488 +0530
-50,x,9,1,37,1,,,,,92.08283633,,,,,,,,,92.07558562,92.08283633,93.06809862,93.06809862,93.06809862,93.06809862,93.07905846,94.0664085,94.0664085,94.51194817,x,1,0.435199875,None,,,,188792,1,2024-10-15_17h52.48.885,v4,2024.1.5,None,2024-10-15 17h53.01.392488 +0530
50,c,9,2,38,2,,,,,94.52427871,,,,,,,,,94.51298233,94.52427871,95.51595654,95.51595654,95.51595654,95.51595654,95.54105479,96.50701487,96.50701487,96.94200671,c,1,0.408977291,None,,,,188792,1,2024-10-15_17h52.48.885,v4,2024.1.5,None,2024-10-15 17h53.01.392488 +0530
150,v,9,3,39,3,,,,,96.95784521,,,,,,,,,96.94312179,96.95784521,97.94081271,97.94081271,97.94081271,97.94081271,97.94995496,98.94125904,98.94125904,99.20824879,v,1,0.261331625,None,,,,188792,1,2024-10-15_17h52.48.885,v4,2024.1.5,None,2024-10-15 17h53.01.392488 +0530
-150,z,10,0,40,0,,,,,99.21658587,,,,,,,,,99.20933425,99.21658587,100.2069713,100.2069713,100.2069713,100.2069713,100.216023,101.2072933,101.2072933,101.4862807,z,1,0.268037333,None,,,,188792,1,2024-10-15_17h52.48.885,v4,2024.1.5,None,2024-10-15 17h53.01.392488 +0530
-50,x,10,1,41,1,,,,,101.4932147,,,,,,,,,101.4873052,101.4932147,102.485454,102.485454,102.485454,102.485454,102.4977715,103.482487,103.482487,103.7497025,x,1,0.262501875,None,,,,188792,1,2024-10-15_17h52.48.885,v4,2024.1.5,None,2024-10-15 17h53.01.392488 +0530
50,c,10,2,42,2,,,,,103.7743557,,,,,,,,,103.750732,103.7743557,104.7525264,104.7525264,104.7525264,104.7525264,104.774779,105.7575517,105.7575517,106.1228635,c,1,0.361467208,None,,,,188792,1,2024-10-15_17h52.48.885,v4,2024.1.5,None,2024-10-15 17h53.01.392488 +0530
150,v,10,3,43,3,,,,,106.1336343,,,,,,,,,106.123911,106.1336343,107.1188995,107.1188995,107.1188995,107.1188995,107.129346,108.117034,108.117034,108.4432365,v,1,0.3158105,None,,,,188792,1,2024-10-15_17h52.48.885,v4,2024.1.5,None,2024-10-15 17h53.01.392488 +0530
-150,z,11,0,44,0,,,,,108.4519143,,,,,,,,,108.4442633,108.4519143,109.4415248,109.4415248,109.4415248,109.4415248,109.4509132,110.4408559,110.4408559,110.7263204,z,1,0.283148375,None,,,,188792,1,2024-10-15_17h52.48.885,v4,2024.1.5,None,2024-10-15 17h53.01.392488 +0530
-50,x,11,1,45,1,,,,,110.7352276,,,,,,,,,110.7274277,110.7352276,111.7241388,111.7241388,111.7241388,111.7241388,111.7328605,112.7245728,112.7245728,112.975339,x,1,0.244120667,None,,,,188792,1,2024-10-15_17h52.48.885,v4,2024.1.5,None,2024-10-15 17h53.01.392488 +0530
50,c,11,2,46,2,,,,,112.9837937,,,,,,,,,112.9763927,112.9837937,113.9755632,113.9755632,113.9755632,113.9755632,113.9836705,114.9736643,114.9736643,115.2839991,c,1,0.300703041,None,,,,188792,1,2024-10-15_17h52.48.885,v4,2024.1.5,None,2024-10-15 17h53.01.392488 +0530
150,v,11,3,47,3,,,,,115.2979735,,,,,,,,,115.2854798,115.2979735,116.2857793,116.2857793,116.2857793,116.2857793,116.2954184,117.2829063,117.2829063,117.6592738,v,1,0.372291292,None,,,,188792,1,2024-10-15_17h52.48.885,v4,2024.1.5,None,2024-10-15 17h53.01.392488 +0530
-150,z,12,0,48,0,,,,,117.6752316,,,,,,,,,117.6606396,117.6752316,118.6748055,118.6748055,118.6748055,118.6748055,118.692148,119.6572391,119.6572391,120.0000508,z,1,0.339329291,None,,,,188792,1,2024-10-15_17h52.48.885,v4,2024.1.5,None,2024-10-15 17h53.01.392488 +0530
-50,x,12,1,49,1,,,,,120.0251176,,,,,,,,,120.0010617,120.0251176,121.0011208,121.0011208,121.0011208,121.0011208,121.025305,121.9994865,121.9994865,122.2857416,x,1,0.281675792,None,,,,188792,1,2024-10-15_17h52.48.885,v4,2024.1.5,None,2024-10-15 17h53.01.392488 +0530
50,c,12,2,50,2,,,,,122.294748,,,,,,,,,122.2867449,122.294748,123.2881777,123.2881777,123.2881777,123.2881777,123.3040704,124.2828354,124.2828354,124.626859,c,1,0.337111291,None,,,,188792,1,2024-10-15_17h52.48.885,v4,2024.1.5,None,2024-10-15 17h53.01.392488 +0530
150,v,12,3,51,3,,,,,124.6354218,,,,,,,,,124.6278871,124.6354218,125.6329697,125.6329697,125.6329697,125.6329697,125.6329697,126.6274193,126.6274193,126.9457238,v,1,0.308182292,None,,,,188792,1,2024-10-15_17h52.48.885,v4,2024.1.5,None,2024-10-15 17h53.01.392488 +0530
-150,z,13,0,52,0,,,,,126.9581865,,,,,,,,,126.9483917,126.9581865,127.9422222,127.9422222,127.9422222,127.9422222,127.9515256,128.9414848,128.9414848,129.3924205,z,1,0.448083084,None,,,,188792,1,2024-10-15_17h52.48.885,v4,2024.1.5,None,2024-10-15 17h53.01.392488 +0530
-50,x,13,1,53,1,,,,,129.4009036,,,,,,,,,129.3934162,129.4009036,130.3929784,130.3929784,130.3929784,130.3929784,130.4021312,131.3913001,131.3913001,131.6603664,x,1,0.264438959,None,,,,188792,1,2024-10-15_17h52.48.885,v4,2024.1.5,None,2024-10-15 17h53.01.392488 +0530
50,c,13,2,54,2,,,,,131.6689051,,,,,,,,,131.6614149,131.6689051,132.6581881,132.6581881,132.6581881,132.6581881,132.667503,133.6586717,133.6586717,134.1469323,c,1,0.476033,None,,,,188792,1,2024-10-15_17h52.48.885,v4,2024.1.5,None,2024-10-15 17h53.01.392488 +0530
150,v,13,3,55,3,,,,,134.1583751,,,,,,,,,134.1480415,134.1583751,135.1415763,135.1415763,135.1415763,135.1415763,135.1496263,136.1592828,136.1592828,136.5102104,v,1,0.343138958,None,,,,188792,1,2024-10-15_17h52.48.885,v4,2024.1.5,None,2024-10-15 17h53.01.392488 +0530
-150,z,14,0,56,0,,,,,136.525174,,,,,,,,,136.5117551,136.525174,137.5138055,137.5138055,137.5138055,137.5138055,137.5255574,138.5083747,138.5083747,138.9557055,z,1,0.444733917,None,,,,188792,1,2024-10-15_17h52.48.885,v4,2024.1.5,None,2024-10-15 17h53.01.392488 +0530
-50,x,14,1,57,1,,,,,138.9648789,,,,,,,,,138.9568085,138.9648789,139.953485,139.953485,139.953485,139.953485,139.9618285,140.9493139,140.9493139,141.3596861,x,1,0.402374666,None,,,,188792,1,2024-10-15_17h52.48.885,v4,2024.1.5,None,2024-10-15 17h53.01.392488 +0530
50,c,14,2,58,2,,,,,141.369477,,,,,,,,,141.3607959,141.369477,142.3590255,142.3590255,142.3590255,142.3590255,142.3669998,143.3513026,143.3513026,143.6928539,c,1,0.335356667,None,,,,188792,1,2024-10-15_17h52.48.885,v4,2024.1.5,None,2024-10-15 17h53.01.392488 +0530
150,v,14,3,59,3,,,,,143.70155,,,,,,,,,143.6938649,143.70155,144.6865459,144.6865459,144.6865459,144.6865459,144.6975287,145.6917013,145.6917013,145.9456091,v,1,0.251025417,None,,,,188792,1,2024-10-15_17h52.48.885,v4,2024.1.5,None,2024-10-15 17h53.01.392488 +0530
-150,z,15,0,60,0,,,,,145.9547597,,,,,,,,,145.9469099,145.9547597,146.9421065,146.9421065,146.9421065,146.9421065,146.9506749,147.9417278,147.9417278,148.1722919,z,1,0.226797375,None,,,,188792,1,2024-10-15_17h52.48.885,v4,2024.1.5,None,2024-10-15 17h53.01.392488 +0530
-50,x,15,1,61,1,,,,,148.1853292,,,,,,,,,148.173494,148.1853292,149.1702075,149.1702075,149.1702075,149.1702075,149.1804015,150.1666149,150.1666149,150.5343795,x,1,0.365022334,None,,,,188792,1,2024-10-15_17h52.48.885,v4,2024.1.5,None,2024-10-15 17h53.01.392488 +0530
50,c,15,2,62,2,,,,,150.5590346,,,,,,,,,150.5353745,150.5590346,151.5375696,151.5375696,151.5375696,151.5375696,151.5585825,152.5337395,152.5337395,152.8007626,c,1,0.263578791,None,,,,188792,1,2024-10-15_17h52.48.885,v4,2024.1.5,None,2024-10-15 17h53.01.392488 +0530
150,v,15,3,63,3,,,,,152.8091647,,,,,,,,,152.8017748,152.8091647,153.8032826,153.8032826,153.8032826,153.8032826,153.8032826,154.8003349,154.8003349,155.0843478,v,1,0.281130917,None,,,,188792,1,2024-10-15_17h52.48.885,v4,2024.1.5,None,2024-10-15 17h53.01.392488 +0530
-150,z,16,0,64,0,,,,,155.0927015,,,,,,,,,155.085332,155.0927015,156.0860336,156.0860336,156.0860336,156.0860336,156.0860336,157.0836685,157.0836685,157.3677463,z,1,0.279956917,None,,,,188792,1,2024-10-15_17h52.48.885,v4,2024.1.5,None,2024-10-15 17h53.01.392488 +0530
-50,x,16,1,65,1,,,,,157.3762592,,,,,,,,,157.3687475,157.3762592,158.3671078,158.3671078,158.3671078,158.3671078,158.3764572,159.3673344,159.3673344,159.7006942,x,1,0.33171475,None,,,,188792,1,2024-10-15_17h52.48.885,v4,2024.1.5,None,2024-10-15 17h53.01.392488 +0530
50,c,16,2,66,2,,,,,159.7091141,,,,,,,,,159.7016864,159.7091141,160.7005537,160.7005537,160.7005537,160.7005537,160.7098703,161.700754,161.700754,161.9691459,c,1,0.261448167,None,,,,188792,1,2024-10-15_17h52.48.885,v4,2024.1.5,None,2024-10-15 17h53.01.392488 +0530
150,v,16,3,67,3,,,,,161.9790206,,,,,,,,,161.970172,161.9790206,162.971886,162.971886,162.971886,162.971886,162.9812219,163.9674329,163.9674329,164.2509797,v,1,0.27878675,None,,,,188792,1,2024-10-15_17h52.48.885,v4,2024.1.5,None,2024-10-15 17h53.01.392488 +0530
-150,z,17,0,68,0,,,,,164.2594599,,,,,,,,,164.2519781,164.2594599,165.2536837,165.2536837,165.2536837,165.2536837,165.2536837,166.251649,166.251649,166.9678573,z,1,0.713353958,None,,,,188792,1,2024-10-15_17h52.48.885,v4,2024.1.5,None,2024-10-15 17h53.01.392488 +0530
-50,x,17,1,69,1,,,,,166.9764872,,,,,,,,,166.9688413,166.9764872,167.9694646,167.9694646,167.9694646,167.9694646,167.9694646,168.9673438,168.9673438,169.2101526,x,1,0.23613475,None,,,,188792,1,2024-10-15_17h52.48.885,v4,2024.1.5,None,2024-10-15 17h53.01.392488 +0530
50,c,17,2,70,2,,,,,169.2194557,,,,,,,,,169.2111518,169.2194557,170.2171817,170.2171817,170.2171817,170.2171817,170.2171817,171.201471,171.201471,171.6918742,c,1,0.4866915,None,,,,188792,1,2024-10-15_17h52.48.885,v4,2024.1.5,None,2024-10-15 17h53.01.392488 +0530
150,v,17,3,71,3,,,,,171.702363,,,,,,,,,171.6929232,171.702363,172.6878442,172.6878442,172.6878442,172.6878442,172.697713,173.684649,173.684649,173.827795,v,1,0.127738,None,,,,188792,1,2024-10-15_17h52.48.885,v4,2024.1.5,None,2024-10-15 17h53.01.392488 +0530
-150,z,18,0,72,0,,,,,173.835049,,,,,,,,,173.8289319,173.835049,174.826768,174.826768,174.826768,174.826768,174.8348307,175.8337629,175.8337629,175.911823,z,1,0.058947,None,,,,188792,1,2024-10-15_17h52.48.885,v4,2024.1.5,None,2024-10-15 17h53.01.392488 +0530
-50,x,18,1,73,1,,,,,175.9367802,,,,,,,,,175.9138581,175.9367802,176.9265003,176.9265003,176.9265003,176.9265003,176.9440564,177.9344461,177.9344461,178.2115699,x,1,0.265557625,None,,,,188792,1,2024-10-15_17h52.48.885,v4,2024.1.5,None,2024-10-15 17h53.01.392488 +0530
50,c,18,2,74,2,,,,,178.2199482,,,,,,,,,178.2131444,178.2199482,179.2135004,179.2135004,179.2135004,179.2135004,179.227169,180.2103469,180.2103469,180.5522756,c,1,0.3349025,None,,,,188792,1,2024-10-15_17h52.48.885,v4,2024.1.5,None,2024-10-15 17h53.01.392488 +0530
150,v,18,3,75,3,,,,,180.5646868,,,,,,,,,180.5533365,180.5646868,181.5542268,181.5542268,181.5542268,181.5542268,181.5646738,182.5519477,182.5519477,182.9198347,v,1,0.36422225,None,,,,188792,1,2024-10-15_17h52.48.885,v4,2024.1.5,None,2024-10-15 17h53.01.392488 +0530
-150,z,19,0,76,0,,,,,182.9288875,,,,,,,,,182.920994,182.9288875,183.9200254,183.9200254,183.9200254,183.9200254,183.9310384,184.918708,184.918708,185.23232,z,1,0.299832833,None,,,,188792,1,2024-10-15_17h52.48.885,v4,2024.1.5,None,2024-10-15 17h53.01.392488 +0530
-50,x,19,1,77,1,,,,,185.2430247,,,,,,,,,185.2333278,185.2430247,186.226937,186.226937,186.226937,186.226937,186.2363113,187.2268202,187.2268202,187.5019035,x,1,0.2732835,None,,,,188792,1,2024-10-15_17h52.48.885,v4,2024.1.5,None,2024-10-15 17h53.01.392488 +0530
50,c,19,2,78,2,,,,,187.5102244,,,,,,,,,187.5029117,187.5102244,188.5034252,188.5034252,188.5034252,188.5034252,188.5034252,189.502507,189.502507,189.8441085,c,1,0.33877725,None,,,,188792,1,2024-10-15_17h52.48.885,v4,2024.1.5,None,2024-10-15 17h53.01.392488 +0530
150,v,19,3,79,3,,,,,189.8522597,,,,,,,,,189.8450936,189.8522597,190.837485,190.837485,190.837485,190.837485,190.8470876,191.8438307,191.8438307,192.0109523,v,1,0.161311125,None,,,,188792,1,2024-10-15_17h52.48.885,v4,2024.1.5,None,2024-10-15 17h53.01.392488 +0530
-150,z,20,0,80,0,,,,,192.0214676,,,,,,,,,192.0119778,192.0214676,193.0050473,193.0050473,193.0050473,193.0050473,193.0151757,194.0093951,194.0093951,194.5845806,z,1,0.564036916,None,,,,188792,1,2024-10-15_17h52.48.885,v4,2024.1.5,None,2024-10-15 17h53.01.392488 +0530
-50,x,20,1,81,1,,,,,194.5936022,,,,,,,,,194.5857255,194.5936022,195.5874507,195.5874507,195.5874507,195.5874507,195.5874507,196.5851268,196.5851268,196.8835098,x,1,0.29467275,None,,,,188792,1,2024-10-15_17h52.48.885,v4,2024.1.5,None,2024-10-15 17h53.01.392488 +0530
50,c,20,2,82,2,,,,,196.893443,,,,,,,,,196.884627,196.893443,197.8773489,197.8773489,197.8773489,197.8773489,197.8866675,198.8766896,198.8766896,199.1455656,c,1,0.259027542,None,,,,188792,1,2024-10-15_17h52.48.885,v4,2024.1.5,None,2024-10-15 17h53.01.392488 +0530
150,v,20,3,83,3,,,,,199.151743,,,,,,,,,199.1465658,199.151743,200.1434624,200.1434624,200.1434624,200.1434624,200.1518802,201.1437165,201.1437165,201.4884857,v,1,0.335725083,None,,,,188792,1,2024-10-15_17h52.48.885,v4,2024.1.5,None,2024-10-15 17h53.01.392488 +0530
-150,z,21,0,84,0,,,,,201.4965843,,,,,,,,,201.489535,201.4965843,202.4866522,202.4866522,202.4866522,202.4866522,202.4942997,203.4867031,203.4867031,203.8449391,z,1,0.349140333,None,,,,188792,1,2024-10-15_17h52.48.885,v4,2024.1.5,None,2024-10-15 17h53.01.392488 +0530
-50,x,21,1,85,1,,,,,203.8544305,,,,,,,,,203.8460784,203.8544305,204.8435181,204.8435181,204.8435181,204.8435181,204.8521507,205.8434882,205.8434882,206.152228,x,1,0.302472333,None,,,,188792,1,2024-10-15_17h52.48.885,v4,2024.1.5,None,2024-10-15 17h53.01.392488 +0530
50,c,21,2,86,2,,,,,206.1607002,,,,,,,,,206.1532233,206.1607002,207.1522545,207.1522545,207.1522545,207.1522545,207.1615202,208.1517877,208.1517877,208.5206018,c,1,0.36650925,None,,,,188792,1,2024-10-15_17h52.48.885,v4,2024.1.5,None,2024-10-15 17h53.01.392488 +0530
150,v,21,3,87,3,,,,,208.5296795,,,,,,,,,208.521611,208.5296795,209.5208331,209.5208331,209.5208331,209.5208331,209.5308931,210.5225115,210.5225115,210.8189638,v,1,0.2927875,None,,,,188792,1,2024-10-15_17h52.48.885,v4,2024.1.5,None,2024-10-15 17h53.01.392488 +0530
-150,z,22,0,88,0,,,,,210.8276304,,,,,,,,,210.8199532,210.8276304,211.8278159,211.8278159,211.8278159,211.8278159,211.8445307,212.8219535,212.8219535,213.1293242,z,1,0.30014675,None,,,,188792,1,2024-10-15_17h52.48.885,v4,2024.1.5,None,2024-10-15 17h53.01.392488 +0530
-50,x,22,1,89,1,,,,,213.1395868,,,,,,,,,213.1308039,213.1395868,214.1458666,214.1458666,214.1458666,214.1458666,214.1614491,215.1270505,215.1270505,215.4861362,x,1,0.354513458,None,,,,188792,1,2024-10-15_17h52.48.885,v4,2024.1.5,None,2024-10-15 17h53.01.392488 +0530
50,c,22,2,90,2,,,,,215.4946749,,,,,,,,,215.4871504,215.4946749,216.4875184,216.4875184,216.4875184,216.4875184,216.4875184,217.4840315,217.4840315,217.8860967,c,1,0.397521875,None,,,,188792,1,2024-10-15_17h52.48.885,v4,2024.1.5,None,2024-10-15 17h53.01.392488 +0530
150,v,22,3,91,3,,,,,217.8946127,,,,,,,,,217.8871567,217.8946127,218.887698,218.887698,218.887698,218.887698,218.887698,219.8948238,219.8948238,220.238278,v,1,0.338998375,None,,,,188792,1,2024-10-15_17h52.48.885,v4,2024.1.5,None,2024-10-15 17h53.01.392488 +0530
-150,z,23,0,92,0,,,,,220.2493347,,,,,,,,,220.2394399,220.2493347,221.2391412,221.2391412,221.2391412,221.2391412,221.2495385,222.2356408,222.2356408,222.5202147,z,1,0.283125125,None,,,,188792,1,2024-10-15_17h52.48.885,v4,2024.1.5,None,2024-10-15 17h53.01.392488 +0530
-50,x,23,1,93,1,,,,,222.5442398,,,,,,,,,222.5212022,222.5442398,223.5256048,223.5256048,223.5256048,223.5256048,223.553451,224.5227744,224.5227744,224.8028099,x,1,0.275060042,None,,,,188792,1,2024-10-15_17h52.48.885,v4,2024.1.5,None,2024-10-15 17h53.01.392488 +0530
50,c,23,2,94,2,,,,,224.8115638,,,,,,,,,224.803818,224.8115638,225.8029762,225.8029762,225.8029762,225.8029762,225.8123411,226.8025845,226.8025845,227.0888395,c,1,0.272687125,None,,,,188792,1,2024-10-15_17h52.48.885,v4,2024.1.5,None,2024-10-15 17h53.01.392488 +0530
150,v,23,3,95,3,,,,,227.0978575,,,,,,,,,227.089909,227.0978575,228.0884578,228.0884578,228.0884578,228.0884578,228.0989834,229.0860425,229.0860425,229.3623846,v,1,0.273384084,None,,,,188792,1,2024-10-15_17h52.48.885,v4,2024.1.5,None,2024-10-15 17h53.01.392488 +0530
-150,z,24,0,96,0,,,,,229.3707033,,,,,,,,,229.3633641,229.3707033,230.3611538,230.3611538,230.3611538,230.3611538,230.3696165,231.3602975,231.3602975,231.6551134,z,1,0.291247916,None,,,,188792,1,2024-10-15_17h52.48.885,v4,2024.1.5,None,2024-10-15 17h53.01.392488 +0530
-50,x,24,1,97,1,,,,,231.6635775,,,,,,,,,231.6562335,231.6635775,232.6557009,232.6557009,232.6557009,232.6557009,232.6654298,233.6522655,233.6522655,233.892583,x,1,0.236566834,None,,,,188792,1,2024-10-15_17h52.48.885,v4,2024.1.5,None,2024-10-15 17h53.01.392488 +0530
50,c,24,2,98,2,,,,,233.9036922,,,,,,,,,233.8936438,233.9036922,234.8899445,234.8899445,234.8899445,234.8899445,234.8987549,235.8861032,235.8861032,236.1631048,c,1,0.267003208,None,,,,188792,1,2024-10-15_17h52.48.885,v4,2024.1.5,None,2024-10-15 17h53.01.392488 +0530
150,v,24,3,99,3,,,,,236.1697431,,,,,,,,,236.1641397,236.1697431,237.160876,237.160876,237.160876,237.160876,237.1692073,238.1609317,238.1609317,238.4295761,v,1,0.241630833,None,,,,188792,1,2024-10-15_17h52.48.885,v4,2024.1.5,None,2024-10-15 17h53.01.392488 +0530
-150,z,25,0,100,0,,,,,238.4446881,,,,,,,,,238.4306095,238.4446881,239.4313398,239.4313398,239.4313398,239.4313398,239.4457981,240.427902,240.427902,240.6879845,z,1,0.253376583,None,,,,188792,1,2024-10-15_17h52.48.885,v4,2024.1.5,None,2024-10-15 17h53.01.392488 +0530
-50,x,25,1,101,1,,,,,240.6973726,,,,,,,,,240.6890173,240.6973726,241.6895139,241.6895139,241.6895139,241.6895139,241.7005285,242.6866266,242.6866266,242.9367176,x,1,0.243814041,None,,,,188792,1,2024-10-15_17h52.48.885,v4,2024.1.5,None,2024-10-15 17h53.01.392488 +0530
50,c,25,2,102,2,,,,,242.961776,,,,,,,,,242.9378411,242.961776,243.9372125,243.9372125,243.9372125,243.9372125,243.9788716,244.9349997,244.9349997,245.2632296,c,1,0.320209625,None,,,,188792,1,2024-10-15_17h52.48.885,v4,2024.1.5,None,2024-10-15 17h53.01.392488 +0530
150,v,25,3,103,3,,,,,245.2722142,,,,,,,,,245.2642659,245.2722142,246.2646274,246.2646274,246.2646274,246.2646274,246.2839327,247.2676279,247.2676279,247.572526,v,1,0.297135708,None,,,,188792,1,2024-10-15_17h52.48.885,v4,2024.1.5,None,2024-10-15 17h53.01.392488 +0530
-150,z,26,0,104,0,,,,,247.5856942,,,,,,,,,247.5739949,247.5856942,248.5715792,248.5715792,248.5715792,248.5715792,248.5805569,249.5700471,249.5700471,249.8628251,z,1,0.278927666,None,,,,188792,1,2024-10-15_17h52.48.885,v4,2024.1.5,None,2024-10-15 17h53.01.392488 +0530
-50,x,26,1,105,1,,,,,249.87901,,,,,,,,,249.8638718,249.87901,250.8688,250.8688,250.8688,250.8688,250.878316,251.8608111,251.8608111,252.2204885,x,1,0.358085625,None,,,,188792,1,2024-10-15_17h52.48.885,v4,2024.1.5,None,2024-10-15 17h53.01.392488 +0530
50,c,26,2,106,2,,,,,252.2311102,,,,,,,,,252.2214935,252.2311102,253.2227194,253.2227194,253.2227194,253.2227194,253.231518,254.2198696,254.2198696,254.9384371,c,1,0.715111125,None,,,,188792,1,2024-10-15_17h52.48.885,v4,2024.1.5,None,2024-10-15 17h53.01.392488 +0530
150,v,26,3,107,3,,,,,254.9474951,,,,,,,,,254.9395005,254.9474951,255.9402448,255.9402448,255.9402448,255.9402448,255.949512,256.9365296,256.9365296,257.4875265,v,1,0.54705525,None,,,,188792,1,2024-10-15_17h52.48.885,v4,2024.1.5,None,2024-10-15 17h53.01.392488 +0530
-150,z,27,0,108,0,,,,,257.4980441,,,,,,,,,257.4890602,257.4980441,258.4897111,258.4897111,258.4897111,258.4897111,258.5010921,259.4866467,259.4866467,259.9959563,z,1,0.502673791,None,,,,188792,1,2024-10-15_17h52.48.885,v4,2024.1.5,None,2024-10-15 17h53.01.392488 +0530
-50,x,27,1,109,1,,,,,260.0116055,,,,,,,,,259.9969811,260.0116055,260.9906072,260.9906072,260.9906072,260.9906072,261.0115894,261.9949243,261.9949243,262.3318413,x,1,0.317836459,None,,,,188792,1,2024-10-15_17h52.48.885,v4,2024.1.5,None,2024-10-15 17h53.01.392488 +0530
50,c,27,2,110,2,,,,,262.3417838,,,,,,,,,262.3335414,262.3417838,263.3284485,263.3284485,263.3284485,263.3284485,263.336533,264.3298363,264.3298363,264.6468025,c,1,0.313874166,None,,,,188792,1,2024-10-15_17h52.48.885,v4,2024.1.5,None,2024-10-15 17h53.01.392488 +0530
150,v,27,3,111,3,,,,,264.656554,,,,,,,,,264.6479238,264.656554,265.6450608,265.6450608,265.6450608,265.6450608,265.6527443,266.6622267,266.6622267,267.2772542,v,1,0.6115885,None,,,,188792,1,2024-10-15_17h52.48.885,v4,2024.1.5,None,2024-10-15 17h53.01.392488 +0530
-150,z,28,0,112,0,,,,,267.2854164,,,,,,,,,267.278307,267.2854164,268.2741657,268.2741657,268.2741657,268.2741657,268.2829451,269.2697111,269.2697111,269.674136,z,1,0.394156166,None,,,,188792,1,2024-10-15_17h52.48.885,v4,2024.1.5,None,2024-10-15 17h53.01.392488 +0530
-50,x,28,1,113,1,,,,,269.6822977,,,,,,,,,269.675166,269.6822977,270.6733107,270.6733107,270.6733107,270.6733107,270.6907313,271.670449,271.670449,272.0629696,x,1,0.384647333,None,,,,188792,1,2024-10-15_17h52.48.885,v4,2024.1.5,None,2024-10-15 17h53.01.392488 +0530
50,c,28,2,114,2,,,,,272.0714534,,,,,,,,,272.063961,272.0714534,273.0564479,273.0564479,273.0564479,273.0564479,273.0651477,274.0697575,274.0697575,274.37966,c,1,0.3049065,None,,,,188792,1,2024-10-15_17h52.48.885,v4,2024.1.5,None,2024-10-15 17h53.01.392488 +0530
150,v,28,3,115,3,,,,,274.3895875,,,,,,,,,274.3806592,274.3895875,275.3805754,275.3805754,275.3805754,275.3805754,275.3901094,276.3782476,276.3782476,276.6810845,v,1,0.27675275,None,,,,188792,1,2024-10-15_17h52.48.885,v4,2024.1.5,None,2024-10-15 17h53.01.392488 +0530
-150,z,29,0,116,0,,,,,276.6955677,,,,,,,,,276.6820972,276.6955677,277.686679,277.686679,277.686679,277.686679,277.6959274,278.6783394,278.6783394,279.0706639,z,1,0.387001584,None,,,,188792,1,2024-10-15_17h52.48.885,v4,2024.1.5,None,2024-10-15 17h53.01.392488 +0530
-50,x,29,1,117,1,,,,,279.0788543,,,,,,,,,279.0716404,279.0788543,280.0727383,280.0727383,280.0727383,280.0727383,280.0727383,281.0710412,281.0710412,281.4299348,x,1,0.352687917,None,,,,188792,1,2024-10-15_17h52.48.885,v4,2024.1.5,None,2024-10-15 17h53.01.392488 +0530
50,c,29,2,118,2,,,,,281.4386961,,,,,,,,,281.4310344,281.4386961,282.4236783,282.4236783,282.4236783,282.4236783,282.4325872,283.4285499,283.4285499,283.7299925,c,1,0.293461417,None,,,,188792,1,2024-10-15_17h52.48.885,v4,2024.1.5,None,2024-10-15 17h53.01.392488 +0530
150,v,29,3,119,3,,,,,283.7383983,,,,,,,,,283.730979,283.7383983,284.7295959,284.7295959,284.7295959,284.7295959,284.7378028,285.7289461,285.7289461,285.90006,v,1,0.159542041,None,,,,188792,1,2024-10-15_17h52.48.885,v4,2024.1.5,None,2024-10-15 17h53.01.392488 +0530
-150,z,30,0,120,0,,,,,285.9123395,,,,,,,,,285.9011147,285.9123395,286.896147,286.896147,286.896147,286.896147,286.9050093,287.8964025,287.8964025,289.0812935,z,1,1.175488542,None,,,,188792,1,2024-10-15_17h52.48.885,v4,2024.1.5,None,2024-10-15 17h53.01.392488 +0530
-50,x,30,1,121,1,,,,,289.0875084,,,,,,,,,289.0823214,289.0875084,290.0793658,290.0793658,290.0793658,290.0793658,290.0880477,291.078907,291.078907,291.4136442,x,1,0.329197958,None,,,,188792,1,2024-10-15_17h52.48.885,v4,2024.1.5,None,2024-10-15 17h53.01.392488 +0530
50,c,30,2,122,2,,,,,291.4228163,,,,,,,,,291.4147646,291.4228163,292.4067492,292.4067492,292.4067492,292.4067492,292.4180785,293.4127133,293.4127133,293.7054695,c,1,0.289755458,None,,,,188792,1,2024-10-15_17h52.48.885,v4,2024.1.5,None,2024-10-15 17h53.01.392488 +0530
150,v,30,3,123,3,,,,,293.7299656,,,,,,,,,293.7064826,293.7299656,294.7074336,294.7074336,294.7074336,294.7074336,294.7294556,295.7042585,295.7042585,296.0047561,v,1,0.29422025,None,,,,188792,1,2024-10-15_17h52.48.885,v4,2024.1.5,None,2024-10-15 17h53.01.392488 +0530
-150,z,31,0,124,0,,,,,296.0131881,,,,,,,,,296.0057442,296.0131881,297.0045477,297.0045477,297.0045477,297.0045477,297.013834,298.0045358,298.0045358,298.7065276,z,1,0.700464708,None,,,,188792,1,2024-10-15_17h52.48.885,v4,2024.1.5,None,2024-10-15 17h53.01.392488 +0530
-50,x,31,1,125,1,,,,,298.7195994,,,,,,,,,298.707511,298.7195994,299.7093575,299.7093575,299.7093575,299.7093575,299.7184815,300.7045644,300.7045644,301.4304535,x,1,0.721231917,None,,,,188792,1,2024-10-15_17h52.48.885,v4,2024.1.5,None,2024-10-15 17h53.01.392488 +0530
50,c,31,2,126,2,,,,,301.4407009,,,,,,,,,301.4314443,301.4407009,302.4240844,302.4240844,302.4240844,302.4240844,302.4350576,303.4294236,303.4294236,303.7607849,c,1,0.329837583,None,,,,188792,1,2024-10-15_17h52.48.885,v4,2024.1.5,None,2024-10-15 17h53.01.392488 +0530
150,v,31,3,127,3,,,,,303.7703015,,,,,,,,,303.7618491,303.7703015,304.7579482,304.7579482,304.7579482,304.7579482,304.7697581,305.7547538,305.7547538,306.0641834,v,1,0.304727292,None,,,,188792,1,2024-10-15_17h52.48.885,v4,2024.1.5,None,2024-10-15 17h53.01.392488 +0530
-150,z,32,0,128,0,,,,,306.072669,,,,,,,,,306.0651787,306.072669,307.0578313,307.0578313,307.0578313,307.0578313,307.066891,308.063133,308.063133,308.3363769,z,1,0.259530708,None,,,,188792,1,2024-10-15_17h52.48.885,v4,2024.1.5,None,2024-10-15 17h53.01.392488 +0530
-50,x,32,1,129,1,,,,,308.3462518,,,,,,,,,308.337521,308.3462518,309.3301482,309.3301482,309.3301482,309.3301482,309.3395817,310.3394913,310.3394913,310.6482014,x,1,0.303382083,None,,,,188792,1,2024-10-15_17h52.48.885,v4,2024.1.5,None,2024-10-15 17h53.01.392488 +0530
50,c,32,2,130,2,,,,,310.6569649,,,,,,,,,310.649249,310.6569649,311.6471008,311.6471008,311.6471008,311.6471008,311.6546969,312.6631956,312.6631956,312.8658854,c,1,0.198474292,None,,,,188792,1,2024-10-15_17h52.48.885,v4,2024.1.5,None,2024-10-15 17h53.01.392488 +0530
150,v,32,3,131,3,,,,,312.8785728,,,,,,,,,312.8684224,312.8785728,313.88034,313.88034,313.88034,313.88034,313.8974392,314.8629032,314.8629032,314.8975448,v,1,0.032055,None,,,,188792,1,2024-10-15_17h52.48.885,v4,2024.1.5,None,2024-10-15 17h53.01.392488 +0530
-150,z,33,0,132,0,,,,,314.9059954,,,,,,,,,314.8985464,314.9059954,315.8969231,315.8969231,315.8969231,315.8969231,315.9061841,316.9054707,316.9054707,317.2387717,z,1,0.326646416,None,,,,188792,1,2024-10-15_17h52.48.885,v4,2024.1.5,None,2024-10-15 17h53.01.392488 +0530
-50,x,33,1,133,1,,,,,317.2471637,,,,,,,,,317.2397791,317.2471637,318.2402225,318.2402225,318.2402225,318.2402225,318.2402225,319.2367575,319.2367575,319.5386,x,1,0.29506825,None,,,,188792,1,2024-10-15_17h52.48.885,v4,2024.1.5,None,2024-10-15 17h53.01.392488 +0530
50,c,33,2,134,2,,,,,319.5505926,,,,,,,,,319.539585,319.5505926,320.5404292,320.5404292,320.5404292,320.5404292,320.5515057,321.5444535,321.5444535,321.8217535,c,1,0.2710075,None,,,,188792,1,2024-10-15_17h52.48.885,v4,2024.1.5,None,2024-10-15 17h53.01.392488 +0530
150,v,33,3,135,3,,,,,321.8303218,,,,,,,,,321.8227372,321.8303218,322.823868,322.823868,322.823868,322.823868,322.8427514,323.8139484,323.8139484,324.0989877,v,1,0.275251209,None,,,,188792,1,2024-10-15_17h52.48.885,v4,2024.1.5,None,2024-10-15 17h53.01.392488 +0530
-150,z,34,0,136,0,,,,,324.1096599,,,,,,,,,324.1005184,324.1096599,325.0968252,325.0968252,325.0968252,325.0968252,325.106194,326.0961521,326.0961521,326.3089508,z,1,0.202618542,None,,,,188792,1,2024-10-15_17h52.48.885,v4,2024.1.5,None,2024-10-15 17h53.01.392488 +0530
-50,x,34,1,137,1,,,,,326.3162259,,,,,,,,,326.309965,326.3162259,327.3065189,327.3065189,327.3065189,327.3065189,327.3157459,328.3051307,328.3051307,328.6389493,x,1,0.332019625,None,,,,188792,1,2024-10-15_17h52.48.885,v4,2024.1.5,None,2024-10-15 17h53.01.392488 +0530
50,c,34,2,138,2,,,,,328.6474442,,,,,,,,,328.6399346,328.6474442,329.6376806,329.6376806,329.6376806,329.6376806,329.6471343,330.6386262,330.6386262,331.7550143,c,1,1.11283575,None,,,,188792,1,2024-10-15_17h52.48.885,v4,2024.1.5,None,2024-10-15 17h53.01.392488 +0530
150,v,34,3,139,3,,,,,331.7640499,,,,,,,,,331.7560643,331.7640499,332.7573672,332.7573672,332.7573672,332.7573672,332.7573672,333.7555126,333.7555126,334.0645685,v,1,0.300062708,None,,,,188792,1,2024-10-15_17h52.48.885,v4,2024.1.5,None,2024-10-15 17h53.01.392488 +0530
-150,z,35,0,140,0,,,,,334.0793565,,,,,,,,,334.0655549,334.0793565,335.0580857,335.0580857,335.0580857,335.0580857,335.0808967,336.0636485,336.0636485,336.9824575,z,1,0.892964584,None,,,,188792,1,2024-10-15_17h52.48.885,v4,2024.1.5,None,2024-10-15 17h53.01.392488 +0530
-50,x,35,1,141,1,,,,,336.9971742,,,,,,,,,336.9834816,336.9971742,337.9803368,337.9803368,337.9803368,337.9803368,337.9887501,338.9872427,338.9872427,339.2420525,x,1,0.245125417,None,,,,188792,1,2024-10-15_17h52.48.885,v4,2024.1.5,None,2024-10-15 17h53.01.392488 +0530
50,c,35,2,142,2,,,,,339.2640667,,,,,,,,,339.2430555,339.2640667,340.2463086,340.2463086,340.2463086,340.2463086,340.2809425,341.2395023,341.2395023,341.5571986,c,1,0.31443675,None,,,,188792,1,2024-10-15_17h52.48.885,v4,2024.1.5,None,2024-10-15 17h53.01.392488 +0530
150,v,35,3,143,3,,,,,341.5671274,,,,,,,,,341.5581849,341.5671274,342.5585791,342.5585791,342.5585791,342.5585791,342.5676059,343.555676,343.555676,343.8560159,v,1,0.298806083,None,,,,188792,1,2024-10-15_17h52.48.885,v4,2024.1.5,None,2024-10-15 17h53.01.392488 +0530
-150,z,36,0,144,0,,,,,343.8810165,,,,,,,,,343.8571164,343.8810165,344.8580312,344.8580312,344.8580312,344.8580312,344.8806478,345.8550515,345.8550515,346.1395122,z,1,0.279233,None,,,,188792,1,2024-10-15_17h52.48.885,v4,2024.1.5,None,2024-10-15 17h53.01.392488 +0530
-50,x,36,1,145,1,,,,,346.1482185,,,,,,,,,346.1405082,346.1482185,347.1408586,347.1408586,347.1408586,347.1408586,347.1408586,348.1374268,348.1374268,348.4065346,x,1,0.2617265,None,,,,188792,1,2024-10-15_17h52.48.885,v4,2024.1.5,None,2024-10-15 17h53.01.392488 +0530
50,c,36,2,146,2,,,,,348.431255,,,,,,,,,348.4075092,348.431255,349.4057734,349.4057734,349.4057734,349.4057734,349.4483303,350.4071112,350.4071112,350.7596862,c,1,0.343352541,None,,,,188792,1,2024-10-15_17h52.48.885,v4,2024.1.5,None,2024-10-15 17h53.01.392488 +0530
150,v,36,3,147,3,,,,,350.7666662,,,,,,,,,350.7607182,350.7666662,351.7552999,351.7552999,351.7552999,351.7552999,351.7646326,352.755503,352.755503,353.0388122,v,1,0.281006625,None,,,,188792,1,2024-10-15_17h52.48.885,v4,2024.1.5,None,2024-10-15 17h53.01.392488 +0530
-150,z,37,0,148,0,,,,,353.0483043,,,,,,,,,353.0399759,353.0483043,354.0411267,354.0411267,354.0411267,354.0411267,354.0411267,355.0482615,355.0482615,355.2094545,z,1,0.1560915,None,,,,188792,1,2024-10-15_17h52.48.885,v4,2024.1.5,None,2024-10-15 17h53.01.392488 +0530
-50,x,37,1,149,1,,,,,355.2211392,,,,,,,,,355.2105291,355.2211392,356.2075795,356.2075795,356.2075795,356.2075795,356.2313046,357.2058055,357.2058055,357.548959,x,1,0.318343084,None,,,,188792,1,2024-10-15_17h52.48.885,v4,2024.1.5,None,2024-10-15 17h53.01.392488 +0530
50,c,37,2,150,2,,,,,357.564334,,,,,,,,,357.5499682,357.564334,358.5489287,358.5489287,358.5489287,358.5489287,358.5633605,359.5480889,359.5480889,359.8825335,c,1,0.328206667,None,,,,188792,1,2024-10-15_17h52.48.885,v4,2024.1.5,None,2024-10-15 17h53.01.392488 +0530
150,v,37,3,151,3,,,,,359.891295,,,,,,,,,359.8836694,359.891295,360.881738,360.881738,360.881738,360.881738,360.8962239,361.8809341,361.8809341,362.1830172,v,1,0.296875,None,,,,188792,1,2024-10-15_17h52.48.885,v4,2024.1.5,None,2024-10-15 17h53.01.392488 +0530
-150,z,38,0,152,0,,,,,362.1915984,,,,,,,,,362.1840486,362.1915984,363.1813709,363.1813709,363.1813709,363.1813709,363.190857,364.1810329,364.1810329,364.616546,z,1,0.425268375,None,,,,188792,1,2024-10-15_17h52.48.885,v4,2024.1.5,None,2024-10-15 17h53.01.392488 +0530
-50,x,38,1,153,1,,,,,364.6234472,,,,,,,,,364.6175677,364.6234472,365.615168,365.615168,365.615168,365.615168,365.6237342,366.6213663,366.6213663,366.9007974,x,1,0.271851042,None,,,,188792,1,2024-10-15_17h52.48.885,v4,2024.1.5,None,2024-10-15 17h53.01.392488 +0530
50,c,38,2,154,2,,,,,366.9101439,,,,,,,,,366.9018554,366.9101439,367.9150212,367.9150212,367.9150212,367.9150212,367.9322085,368.8972587,368.8972587,369.2732635,c,1,0.374400709,None,,,,188792,1,2024-10-15_17h52.48.885,v4,2024.1.5,None,2024-10-15 17h53.01.392488 +0530
150,v,38,3,155,3,,,,,369.2815258,,,,,,,,,369.2742422,369.2815258,370.274398,370.274398,370.274398,370.274398,370.274398,371.2718887,371.2718887,371.7728362,v,1,0.495599917,None,,,,188792,1,2024-10-15_17h52.48.885,v4,2024.1.5,None,2024-10-15 17h53.01.392488 +0530
-150,z,39,0,156,0,,,,,371.7813819,,,,,,,,,371.7738261,371.7813819,372.7670496,372.7670496,372.7670496,372.7670496,372.782353,373.7729735,373.7729735,374.8064905,z,1,1.026748917,None,,,,188792,1,2024-10-15_17h52.48.885,v4,2024.1.5,None,2024-10-15 17h53.01.392488 +0530
-50,x,39,1,157,1,,,,,374.8148579,,,,,,,,,374.8074984,374.8148579,375.806993,375.806993,375.806993,375.806993,375.806993,376.807451,376.807451,377.2409456,x,1,0.430343667,None,,,,188792,1,2024-10-15_17h52.48.885,v4,2024.1.5,None,2024-10-15 17h53.01.392488 +0530
50,c,39,2,158,2,,,,,377.2508934,,,,,,,,,377.2420818,377.2508934,378.2437085,378.2437085,378.2437085,378.2437085,378.2607506,379.239887,379.239887,379.5165912,c,1,0.266077917,None,,,,188792,1,2024-10-15_17h52.48.885,v4,2024.1.5,None,2024-10-15 17h53.01.392488 +0530
150,v,39,3,159,3,,,,,379.5277379,,,,,,,,,379.5175842,379.5277379,380.5197045,380.5197045,380.5197045,380.5197045,380.532366,381.514301,381.514301,381.7826484,v,1,0.259939541,None,,,,188792,1,2024-10-15_17h52.48.885,v4,2024.1.5,None,2024-10-15 17h53.01.392488 +0530
-150,z,40,0,160,0,,,,,381.7911457,,,,,,,,,381.7836447,381.7911457,382.7751054,382.7751054,382.7751054,382.7751054,382.7987337,383.7894441,383.7894441,384.1102315,z,1,0.311611375,None,,,,188792,1,2024-10-15_17h52.48.885,v4,2024.1.5,None,2024-10-15 17h53.01.392488 +0530
-50,x,40,1,161,1,,,,,384.1226119,,,,,,,,,384.1114453,384.1226119,385.1074569,385.1074569,385.1074569,385.1074569,385.1154138,386.110417,386.110417,386.4572474,x,1,0.339722583,None,,,,188792,1,2024-10-15_17h52.48.885,v4,2024.1.5,None,2024-10-15 17h53.01.392488 +0530
50,c,40,2,162,2,,,,,386.4658315,,,,,,,,,386.458247,386.4658315,387.4587517,387.4587517,387.4587517,387.4587517,387.4587517,388.4621637,388.4621637,389.1080327,c,1,0.641931917,None,,,,188792,1,2024-10-15_17h52.48.885,v4,2024.1.5,None,2024-10-15 17h53.01.392488 +0530
150,v,40,3,163,3,,,,,389.1173525,,,,,,,,,389.1090998,389.1173525,390.1109097,390.1109097,390.1109097,390.1109097,390.1193697,391.10692,391.10692,391.3904561,v,1,0.280482708,None,,,,188792,1,2024-10-15_17h52.48.885,v4,2024.1.5,None,2024-10-15 17h53.01.392488 +0530
-150,z,41,0,164,0,,,,,391.3996532,,,,,,,,,391.3914738,391.3996532,392.392057,392.392057,392.392057,392.392057,392.392057,393.3914257,393.3914257,394.6661406,z,1,1.267349333,None,,,,188792,1,2024-10-15_17h52.48.885,v4,2024.1.5,None,2024-10-15 17h53.01.392488 +0530
-50,x,41,1,165,1,,,,,394.6743942,,,,,,,,,394.6671264,394.6743942,395.673776,395.673776,395.673776,395.673776,395.673776,396.6650971,396.6650971,397.0108726,x,1,0.336632,None,,,,188792,1,2024-10-15_17h52.48.885,v4,2024.1.5,None,2024-10-15 17h53.01.392488 +0530
50,c,41,2,166,2,,,,,397.0178695,,,,,,,,,397.0118897,397.0178695,398.0066334,398.0066334,398.0066334,398.0066334,398.0160034,399.0070755,399.0070755,399.3075867,c,1,0.299024042,None,,,,188792,1,2024-10-15_17h52.48.885,v4,2024.1.5,None,2024-10-15 17h53.01.392488 +0530
150,v,41,3,167,3,,,,,399.3158078,,,,,,,,,399.3085831,399.3158078,400.3068665,400.3068665,400.3068665,400.3068665,400.31627,401.3070838,401.3070838,401.7504325,v,1,0.43393025,None,,,,188792,1,2024-10-15_17h52.48.885,v4,2024.1.5,None,2024-10-15 17h53.01.392488 +0530
-150,z,42,0,168,0,,,,,401.7566717,,,,,,,,,401.7514453,401.7566717,402.7484659,402.7484659,402.7484659,402.7484659,402.7484659,403.7485844,403.7485844,404.8830487,z,1,1.128066583,None,,,,188792,1,2024-10-15_17h52.48.885,v4,2024.1.5,None,2024-10-15 17h53.01.392488 +0530
-50,x,42,1,169,1,,,,,404.8914107,,,,,,,,,404.8840318,404.8914107,405.8761609,405.8761609,405.8761609,405.8761609,405.8853783,406.8991938,406.8991938,407.167775,x,1,0.261188875,None,,,,188792,1,2024-10-15_17h52.48.885,v4,2024.1.5,None,2024-10-15 17h53.01.392488 +0530
50,c,42,2,170,2,,,,,407.176218,,,,,,,,,407.1688015,407.176218,408.1738546,408.1738546,408.1738546,408.1738546,408.1738546,409.1649083,409.1649083,409.4930203,c,1,0.322243583,None,,,,188792,1,2024-10-15_17h52.48.885,v4,2024.1.5,None,2024-10-15 17h53.01.392488 +0530
150,v,42,3,171,3,,,,,409.5015575,,,,,,,,,409.4940417,409.5015575,410.4975425,410.4975425,410.4975425,410.4975425,410.5079043,411.4898875,411.4898875,412.0068307,v,1,0.513292042,None,,,,188792,1,2024-10-15_17h52.48.885,v4,2024.1.5,None,2024-10-15 17h53.01.392488 +0530
-150,z,43,0,172,0,,,,,412.0158684,,,,,,,,,412.0079932,412.0158684,413.0096468,413.0096468,413.0096468,413.0096468,413.0096468,414.0074911,414.0074911,414.354115,z,1,0.3339485,None,,,,188792,1,2024-10-15_17h52.48.885,v4,2024.1.5,None,2024-10-15 17h53.01.392488 +0530
-50,x,43,1,173,1,,,,,414.3682403,,,,,,,,,414.3552625,414.3682403,415.3539458,415.3539458,415.3539458,415.3539458,415.374673,416.3488906,416.3488906,416.5333549,x,1,0.180912084,None,,,,188792,1,2024-10-15_17h52.48.885,v4,2024.1.5,None,2024-10-15 17h53.01.392488 +0530
50,c,43,2,174,2,,,,,416.5415717,,,,,,,,,416.5343381,416.5415717,417.5332365,417.5332365,417.5332365,417.5332365,417.5418062,418.5324327,418.5324327,419.1333277,c,1,0.594665333,None,,,,188792,1,2024-10-15_17h52.48.885,v4,2024.1.5,None,2024-10-15 17h53.01.392488 +0530
150,v,43,3,175,3,,,,,419.1426694,,,,,,,,,419.1344361,419.1426694,420.12719,420.12719,420.12719,420.12719,420.1364931,421.1331781,421.1331781,421.8667523,v,1,0.728686666,None,,,,188792,1,2024-10-15_17h52.48.885,v4,2024.1.5,None,2024-10-15 17h53.01.392488 +0530
-150,z,44,0,176,0,,,,,421.8749959,,,,,,,,,421.8677285,421.8749959,422.8602592,422.8602592,422.8602592,422.8602592,422.8692713,423.8653482,423.8653482,424.4244243,z,1,0.553293541,None,,,,188792,1,2024-10-15_17h52.48.885,v4,2024.1.5,None,2024-10-15 17h53.01.392488 +0530
-50,x,44,1,177,1,,,,,424.4330095,,,,,,,,,424.425433,424.4330095,425.4253366,425.4253366,425.4253366,425.4253366,425.4426038,426.4161728,426.4161728,426.9332832,x,1,0.48633,None,,,,188792,1,2024-10-15_17h52.48.885,v4,2024.1.5,None,2024-10-15 17h53.01.392488 +0530
50,c,44,2,178,2,,,,,426.945636,,,,,,,,,426.9343141,426.945636,427.9265347,427.9265347,427.9265347,427.9265347,427.9503017,428.9326102,428.9326102,429.4792115,c,1,0.528485458,None,,,,188792,1,2024-10-15_17h52.48.885,v4,2024.1.5,None,2024-10-15 17h53.01.392488 +0530
150,v,44,3,179,3,,,,,429.4892509,,,,,,,,,429.4817386,429.4892509,430.4834448,430.4834448,430.4834448,430.4834448,430.4834448,431.4744503,431.4744503,431.8592984,v,1,0.379537666,None,,,,188792,1,2024-10-15_17h52.48.885,v4,2024.1.5,None,2024-10-15 17h53.01.392488 +0530
-150,z,45,0,180,0,,,,,431.8703243,,,,,,,,,431.8609104,431.8703243,432.8640506,432.8640506,432.8640506,432.8640506,432.8783439,433.8580658,433.8580658,434.2917345,z,1,0.42722875,None,,,,188792,1,2024-10-15_17h52.48.885,v4,2024.1.5,None,2024-10-15 17h53.01.392488 +0530
-50,x,45,1,181,1,,,,,434.3001622,,,,,,,,,434.2927181,434.3001622,435.2933737,435.2933737,435.2933737,435.2933737,435.2933737,436.2990607,436.2990607,436.6175755,x,1,0.314264209,None,,,,188792,1,2024-10-15_17h52.48.885,v4,2024.1.5,None,2024-10-15 17h53.01.392488 +0530
50,c,45,2,182,2,,,,,436.6267635,,,,,,,,,436.618713,436.6267635,437.6158707,437.6158707,437.6158707,437.6158707,437.6243629,438.6228881,438.6228881,439.0085657,c,1,0.378823416,None,,,,188792,1,2024-10-15_17h52.48.885,v4,2024.1.5,None,2024-10-15 17h53.01.392488 +0530
150,v,45,3,183,3,,,,,439.0335617,,,,,,,,,439.0096915,439.0335617,440.0111972,440.0111972,440.0111972,440.0111972,440.0337765,441.0083751,441.0083751,441.3177649,v,1,0.283644,None,,,,188792,1,2024-10-15_17h52.48.885,v4,2024.1.5,None,2024-10-15 17h53.01.392488 +0530
-150,z,46,0,184,0,,,,,441.3339668,,,,,,,,,441.3188301,441.3339668,442.316476,442.316476,442.316476,442.316476,442.3244882,443.3107758,443.3107758,443.627886,z,1,0.310930375,None,,,,188792,1,2024-10-15_17h52.48.885,v4,2024.1.5,None,2024-10-15 17h53.01.392488 +0530
-50,x,46,1,185,1,,,,,443.6414437,,,,,,,,,443.6294773,443.6414437,444.6272835,444.6272835,444.6272835,444.6272835,444.6363787,445.6340236,445.6340236,445.9653435,x,1,0.323115583,None,,,,188792,1,2024-10-15_17h52.48.885,v4,2024.1.5,None,2024-10-15 17h53.01.392488 +0530
50,c,46,2,186,2,,,,,445.972385,,,,,,,,,445.966515,445.972385,446.9612264,446.9612264,446.9612264,446.9612264,446.9717642,447.9839017,447.9839017,448.3176609,c,1,0.328235083,None,,,,188792,1,2024-10-15_17h52.48.885,v4,2024.1.5,None,2024-10-15 17h53.01.392488 +0530
150,v,46,3,187,3,,,,,448.3262272,,,,,,,,,448.3186708,448.3262272,449.3102573,449.3102573,449.3102573,449.3102573,449.3209155,450.3174259,450.3174259,450.5513639,v,1,0.229854542,None,,,,188792,1,2024-10-15_17h52.48.885,v4,2024.1.5,None,2024-10-15 17h53.01.392488 +0530
-150,z,47,0,188,0,,,,,450.5599669,,,,,,,,,450.5524192,450.5599669,451.5669462,451.5669462,451.5669462,451.5669462,451.584266,452.549307,452.549307,452.9084339,z,1,0.352791625,None,,,,188792,1,2024-10-15_17h52.48.885,v4,2024.1.5,None,2024-10-15 17h53.01.392488 +0530
-50,x,47,1,189,1,,,,,452.9167662,,,,,,,,,452.909453,452.9167662,453.9088712,453.9088712,453.9088712,453.9088712,453.9088712,454.9120391,454.9120391,455.2590175,x,1,0.340355041,None,,,,188792,1,2024-10-15_17h52.48.885,v4,2024.1.5,None,2024-10-15 17h53.01.392488 +0530
50,c,47,2,190,2,,,,,455.2672437,,,,,,,,,455.2601627,455.2672437,456.2603783,456.2603783,456.2603783,456.2603783,456.2603783,457.257507,457.257507,457.5687577,c,1,0.300252958,None,,,,188792,1,2024-10-15_17h52.48.885,v4,2024.1.5,None,2024-10-15 17h53.01.392488 +0530
150,v,47,3,191,3,,,,,457.5751695,,,,,,,,,457.569763,457.5751695,458.5676018,458.5676018,458.5676018,458.5676018,458.5676018,459.566819,459.566819,459.8103955,v,1,0.242211084,None,,,,188792,1,2024-10-15_17h52.48.885,v4,2024.1.5,None,2024-10-15 17h53.01.392488 +0530
-150,z,48,0,192,0,,,,,459.8280579,,,,,,,,,459.8113831,459.8280579,460.8118086,460.8118086,460.8118086,460.8118086,460.8206451,461.808478,461.808478,462.6019498,z,1,0.782433625,None,,,,188792,1,2024-10-15_17h52.48.885,v4,2024.1.5,None,2024-10-15 17h53.01.392488 +0530
-50,x,48,1,193,1,,,,,462.616896,,,,,,,,,462.6030185,462.616896,463.600168,463.600168,463.600168,463.600168,463.6091993,464.600205,464.600205,464.8587486,x,1,0.25268375,None,,,,188792,1,2024-10-15_17h52.48.885,v4,2024.1.5,None,2024-10-15 17h53.01.392488 +0530
50,c,48,2,194,2,,,,,464.8671127,,,,,,,,,464.8597386,464.8671127,465.8606464,465.8606464,465.8606464,465.8606464,465.8606464,466.8592941,466.8592941,467.2181864,c,1,0.353103625,None,,,,188792,1,2024-10-15_17h52.48.885,v4,2024.1.5,None,2024-10-15 17h53.01.392488 +0530
150,v,48,3,195,3,,,,,467.2269377,,,,,,,,,467.2192872,467.2269377,468.216994,468.216994,468.216994,468.216994,468.2254197,469.2169728,469.2169728,469.4759433,v,1,0.254532458,None,,,,188792,1,2024-10-15_17h52.48.885,v4,2024.1.5,None,2024-10-15 17h53.01.392488 +0530
-150,z,49,0,196,0,,,,,469.5009512,,,,,,,,,469.4769503,469.5009512,470.4763434,470.4763434,470.4763434,470.4763434,470.5014657,471.4755067,471.4755067,471.8091415,z,1,0.327313667,None,,,,188792,1,2024-10-15_17h52.48.885,v4,2024.1.5,None,2024-10-15 17h53.01.392488 +0530
-50,x,49,1,197,1,,,,,471.8174877,,,,,,,,,471.8101488,471.8174877,472.8176366,472.8176366,472.8176366,472.8176366,472.8349034,473.8089063,473.8089063,474.2411171,x,1,0.41878775,None,,,,188792,1,2024-10-15_17h52.48.885,v4,2024.1.5,None,2024-10-15 17h53.01.392488 +0530
50,c,49,2,198,2,,,,,474.2510193,,,,,,,,,474.2421882,474.2510193,475.2383895,475.2383895,475.2383895,475.2383895,475.2512483,476.2349672,476.2349672,476.7101669,c,1,0.47127575,None,,,,188792,1,2024-10-15_17h52.48.885,v4,2024.1.5,None,2024-10-15 17h53.01.392488 +0530
150,v,49,3,199,3,,,,,476.7213041,,,,,,,,,476.7116758,476.7213041,477.711704,477.711704,477.711704,477.711704,477.7208834,478.7091822,478.7091822,479.0517134,v,1,0.339603084,None,,,,188792,1,2024-10-15_17h52.48.885,v4,2024.1.5,None,2024-10-15 17h53.01.392488 +0530
150,v,,,,,0,0,0,3,479.0959855,,,,,,,,,479.0881174,479.0959855,480.0505941,480.0505941,480.0505941,480.0505941,480.0926815,481.0504798,481.0504798,482.459563,v,1,1.4059185,None,,,,188792,1,2024-10-15_17h52.48.885,v4,2024.1.5,None,2024-10-15 17h53.01.392488 +0530
150,v,,,,,0,1,1,3,482.4713679,,,,,,,,,482.4625267,482.4713679,483.461787,483.461787,483.461787,483.461787,483.4709567,484.4585486,484.4585486,484.9037722,v,1,0.432987917,None,,,,188792,1,2024-10-15_17h52.48.885,v4,2024.1.5,None,2024-10-15 17h53.01.392488 +0530
50,c,,,,,0,2,2,2,484.9105025,,,,,,,,,484.9048127,484.9105025,485.9011647,485.9011647,485.9011647,485.9011647,485.9106932,486.9007047,486.9007047,487.4651046,c,1,0.551606333,None,,,,188792,1,2024-10-15_17h52.48.885,v4,2024.1.5,None,2024-10-15 17h53.01.392488 +0530
-50,x,,,,,0,3,3,1,487.4720652,,,,,,,,,487.4662508,487.4720652,488.4631866,488.4631866,488.4631866,488.4631866,488.4724277,489.4592363,489.4592363,489.9260951,z,0,0.460550459,None,,,,188792,1,2024-10-15_17h52.48.885,v4,2024.1.5,None,2024-10-15 17h53.01.392488 +0530
-150,z,,,,,1,0,4,0,489.9346413,,,,,,,,,489.9271127,489.9346413,490.9275769,490.9275769,490.9275769,490.9275769,490.9275769,491.9205052,491.9205052,492.3602095,z,1,0.436892708,None,,,,188792,1,2024-10-15_17h52.48.885,v4,2024.1.5,None,2024-10-15 17h53.01.392488 +0530
-50,x,,,,,1,1,5,1,492.385006,,,,,,,,,492.3612422,492.385006,493.3631312,493.3631312,493.3631312,493.3631312,493.3921871,494.359293,494.359293,494.9852272,x,1,0.621028792,None,,,,188792,1,2024-10-15_17h52.48.885,v4,2024.1.5,None,2024-10-15 17h53.01.392488 +0530
50,c,,,,,1,2,6,2,494.9934,,,,,,,,,494.986223,494.9934,495.9783492,495.9783492,495.9783492,495.9783492,495.987524,496.9843656,496.9843656,497.664209,c,1,0.668690417,None,,,,188792,1,2024-10-15_17h52.48.885,v4,2024.1.5,None,2024-10-15 17h53.01.392488 +0530
150,v,,,,,1,3,7,3,497.6716864,,,,,,,,,497.6652277,497.6716864,498.663071,498.663071,498.663071,498.663071,498.672436,499.6597357,499.6597357,500.1282832,v,1,0.465717083,None,,,,188792,1,2024-10-15_17h52.48.885,v4,2024.1.5,None,2024-10-15 17h53.01.392488 +0530
150,v,,,,,2,0,8,3,500.1389207,,,,,,,,,500.129469,500.1389207,501.1291584,501.1291584,501.1291584,501.1291584,501.1401291,502.1260313,502.1260313,502.6205048,v,1,0.486840791,None,,,,188792,1,2024-10-15_17h52.48.885,v4,2024.1.5,None,2024-10-15 17h53.01.392488 +0530
150,v,,,,,2,1,9,3,502.6338695,,,,,,,,,502.6216023,502.6338695,503.6185999,503.6185999,503.6185999,503.6185999,503.6273978,504.6174958,504.6174958,505.010671,v,1,0.385714125,None,,,,188792,1,2024-10-15_17h52.48.885,v4,2024.1.5,None,2024-10-15 17h53.01.392488 +0530
-150,z,,,,,2,2,10,0,505.0248377,,,,,,,,,505.0119291,505.0248377,506.0126932,506.0126932,506.0126932,506.0126932,506.0216243,507.008462,507.008462,507.5099566,z,1,0.495621833,None,,,,188792,1,2024-10-15_17h52.48.885,v4,2024.1.5,None,2024-10-15 17h53.01.392488 +0530
-50,x,,,,,2,3,11,1,507.5185007,,,,,,,,,507.5109472,507.5185007,508.5117069,508.5117069,508.5117069,508.5117069,508.5117069,509.5154471,509.5154471,509.9809478,x,1,0.455524875,None,,,,188792,1,2024-10-15_17h52.48.885,v4,2024.1.5,None,2024-10-15 17h53.01.392488 +0530
50,c,,,,,3,0,12,2,509.9882522,,,,,,,,,509.981955,509.9882522,510.9792252,510.9792252,510.9792252,510.9792252,510.9986342,511.9773265,511.9773265,512.4190295,c,1,0.434092834,None,,,,188792,1,2024-10-15_17h52.48.885,v4,2024.1.5,None,2024-10-15 17h53.01.392488 +0530
-50,x,,,,,3,1,13,1,512.4273009,,,,,,,,,512.4200294,512.4273009,513.4128287,513.4128287,513.4128287,513.4128287,513.4245425,514.4180366,514.4180366,515.044531,x,1,0.622082041,None,,,,188792,1,2024-10-15_17h52.48.885,v4,2024.1.5,None,2024-10-15 17h53.01.392488 +0530
-150,z,,,,,3,2,14,0,515.053779,,,,,,,,,515.0455756,515.053779,516.0463152,516.0463152,516.0463152,516.0463152,516.0569353,517.0430571,517.0430571,517.5665333,z,1,0.518912042,None,,,,188792,1,2024-10-15_17h52.48.885,v4,2024.1.5,None,2024-10-15 17h53.01.392488 +0530
-150,z,,,,,3,3,15,0,517.5776385,,,,,,,,,517.5675754,517.5776385,518.5629935,518.5629935,518.5629935,518.5629935,518.572653,519.5599054,519.5599054,519.9698827,z,1,0.404234458,None,,,,188792,1,2024-10-15_17h52.48.885,v4,2024.1.5,None,2024-10-15 17h53.01.392488 +0530
50,c,,,,,4,0,16,2,519.9786525,,,,,,,,,519.9710282,519.9786525,520.9850649,520.9850649,520.9850649,520.9850649,521.0021279,521.9683268,521.9683268,522.6537201,c,1,0.676165833,None,,,,188792,1,2024-10-15_17h52.48.885,v4,2024.1.5,None,2024-10-15 17h53.01.392488 +0530
150,v,,,,,4,1,17,3,522.660169,,,,,,,,,522.6547335,522.660169,523.6516285,523.6516285,523.6516285,523.6516285,523.6606162,524.6521608,524.6521608,525.1769352,v,1,0.51926775,None,,,,188792,1,2024-10-15_17h52.48.885,v4,2024.1.5,None,2024-10-15 17h53.01.392488 +0530
50,c,,,,,4,2,18,2,525.1855316,,,,,,,,,525.1779608,525.1855316,526.1784275,526.1784275,526.1784275,526.1784275,526.1784275,527.1750902,527.1750902,528.1940164,c,1,1.012207375,None,,,,188792,1,2024-10-15_17h52.48.885,v4,2024.1.5,None,2024-10-15 17h53.01.392488 +0530
50,c,,,,,4,3,19,2,528.2025174,,,,,,,,,528.1951267,528.2025174,529.1948628,529.1948628,529.1948628,529.1948628,529.1948628,530.1937421,530.1937421,530.8032067,c,1,0.604566292,None,,,,188792,1,2024-10-15_17h52.48.885,v4,2024.1.5,None,2024-10-15 17h53.01.392488 +0530
-50,x,,,,,5,0,20,1,530.8112382,,,,,,,,,530.8041934,530.8112382,531.8034919,531.8034919,531.8034919,531.8034919,531.8126102,532.8017359,532.8017359,533.2860156,x,1,0.477914667,None,,,,188792,1,2024-10-15_17h52.48.885,v4,2024.1.5,None,2024-10-15 17h53.01.392488 +0530
-50,x,,,,,5,1,21,1,533.297943,,,,,,,,,533.2869988,533.297943,534.2805947,534.2805947,534.2805947,534.2805947,534.2895051,535.2847466,535.2847466,535.77738,x,1,0.489018375,None,,,,188792,1,2024-10-15_17h52.48.885,v4,2024.1.5,None,2024-10-15 17h53.01.392488 +0530
-50,x,,,,,5,2,22,1,535.7859878,,,,,,,,,535.7783861,535.7859878,536.7790005,536.7790005,536.7790005,536.7790005,536.7790005,537.7689518,537.7689518,538.1799822,x,1,0.397905167,None,,,,188792,1,2024-10-15_17h52.48.885,v4,2024.1.5,None,2024-10-15 17h53.01.392488 +0530
150,v,,,,,5,3,23,3,538.1910761,,,,,,,,,538.1814355,538.1910761,539.1802001,539.1802001,539.1802001,539.1802001,539.190306,540.2026128,540.2026128,540.8869737,v,1,0.658265917,None,,,,188792,1,2024-10-15_17h52.48.885,v4,2024.1.5,None,2024-10-15 17h53.01.392488 +0530
-150,z,,,,,6,0,24,0,540.902079,,,,,,,,,540.8879995,540.902079,541.8860904,541.8860904,541.8860904,541.8860904,541.8953429,542.885341,542.885341,543.234193,z,1,0.345918583,None,,,,188792,1,2024-10-15_17h52.48.885,v4,2024.1.5,None,2024-10-15 17h53.01.392488 +0530
50,c,,,,,6,1,25,2,543.2422968,,,,,,,,,543.2352298,543.2422968,544.2307231,544.2307231,544.2307231,544.2307231,544.2396718,545.2271849,545.2271849,545.8607945,c,1,0.627283834,None,,,,188792,1,2024-10-15_17h52.48.885,v4,2024.1.5,None,2024-10-15 17h53.01.392488 +0530
-150,z,,,,,6,2,26,0,545.8865484,,,,,,,,,545.8618176,545.8865484,546.8624013,546.8624013,546.8624013,546.8624013,546.8862222,547.8605612,547.8605612,548.3784279,z,1,0.512239917,None,,,,188792,1,2024-10-15_17h52.48.885,v4,2024.1.5,None,2024-10-15 17h53.01.392488 +0530
50,c,,,,,6,3,27,2,548.3893348,,,,,,,,,548.3796175,548.3893348,549.3836223,549.3836223,549.3836223,549.3836223,549.39316,550.3776304,550.3776304,551.0110956,c,1,0.631643708,None,,,,188792,1,2024-10-15_17h52.48.885,v4,2024.1.5,None,2024-10-15 17h53.01.392488 +0530
50,c,,,,,7,0,28,2,551.019831,,,,,,,,,551.0121159,551.019831,552.0100275,552.0100275,552.0100275,552.0100275,552.0100275,553.0124127,553.0124127,553.5047478,c,1,0.482417959,None,,,,188792,1,2024-10-15_17h52.48.885,v4,2024.1.5,None,2024-10-15 17h53.01.392488 +0530
150,v,,,,,7,1,29,3,553.5113483,,,,,,,,,553.505778,553.5113483,554.5047904,554.5047904,554.5047904,554.5047904,554.5153934,555.5021806,555.5021806,556.0710005,v,1,0.560914167,None,,,,188792,1,2024-10-15_17h52.48.885,v4,2024.1.5,None,2024-10-15 17h53.01.392488 +0530
-50,x,,,,,7,2,30,1,556.0815282,,,,,,,,,556.0725502,556.0815282,557.0697326,557.0697326,557.0697326,557.0697326,557.0787441,558.0759614,558.0759614,558.7612685,x,1,0.678945667,None,,,,188792,1,2024-10-15_17h52.48.885,v4,2024.1.5,None,2024-10-15 17h53.01.392488 +0530
50,c,,,,,7,3,31,2,558.7695649,,,,,,,,,558.7622512,558.7695649,559.768824,559.768824,559.768824,559.768824,559.768824,560.7623111,560.7623111,561.3059986,c,1,0.538430334,None,,,,188792,1,2024-10-15_17h52.48.885,v4,2024.1.5,None,2024-10-15 17h53.01.392488 +0530
-150,z,,,,,8,0,32,0,561.314288,,,,,,,,,561.3071629,561.314288,562.3166727,562.3166727,562.3166727,562.3166727,562.3287766,563.3025258,563.3025258,564.2362656,z,1,0.929598792,None,,,,188792,1,2024-10-15_17h52.48.885,v4,2024.1.5,None,2024-10-15 17h53.01.392488 +0530
50,c,,,,,8,1,33,2,564.2437147,,,,,,,,,564.2378922,564.2437147,565.2306454,565.2306454,565.2306454,565.2306454,565.2419769,566.235986,566.235986,566.7372052,c,1,0.498537667,None,,,,188792,1,2024-10-15_17h52.48.885,v4,2024.1.5,None,2024-10-15 17h53.01.392488 +0530
-50,x,,,,,8,2,34,1,566.7434116,,,,,,,,,566.7382203,566.7434116,567.7310691,567.7310691,567.7310691,567.7310691,567.7405379,568.7362901,568.7362901,569.155187,x,1,0.414099,None,,,,188792,1,2024-10-15_17h52.48.885,v4,2024.1.5,None,2024-10-15 17h53.01.392488 +0530
-150,z,,,,,8,3,35,0,569.1637574,,,,,,,,,569.1561678,569.1637574,570.1698935,570.1698935,570.1698935,570.1698935,570.1866887,571.152838,571.152838,571.5782524,z,1,0.41943825,None,,,,188792,1,2024-10-15_17h52.48.885,v4,2024.1.5,None,2024-10-15 17h53.01.392488 +0530
50,c,,,,,9,0,36,2,571.5866941,,,,,,,,,571.5792485,571.5866941,572.5796889,572.5796889,572.5796889,572.5796889,572.5796889,573.5701206,573.5701206,574.1775524,c,1,0.5978565,None,,,,188792,1,2024-10-15_17h52.48.885,v4,2024.1.5,None,2024-10-15 17h53.01.392488 +0530
-150,z,,,,,9,1,37,0,574.1863928,,,,,,,,,574.1785844,574.1863928,575.1807327,575.1807327,575.1807327,575.1807327,575.1807327,576.1771316,576.1771316,576.6039266,z,1,0.423253834,None,,,,188792,1,2024-10-15_17h52.48.885,v4,2024.1.5,None,2024-10-15 17h53.01.392488 +0530
50,c,,,,,9,2,38,2,576.6120711,,,,,,,,,576.6049135,576.6120711,577.5967744,577.5967744,577.5967744,577.5967744,577.6056164,578.6097453,578.6097453,579.1078239,c,1,0.486466208,None,,,,188792,1,2024-10-15_17h52.48.885,v4,2024.1.5,None,2024-10-15 17h53.01.392488 +0530
-50,x,,,,,9,3,39,1,579.1204303,,,,,,,,,579.10903,579.1204303,580.1034113,580.1034113,580.1034113,580.1034113,580.1112169,581.1036081,581.1036081,581.4540695,x,1,0.3467085,None,,,,188792,1,2024-10-15_17h52.48.885,v4,2024.1.5,None,2024-10-15 17h53.01.392488 +0530
-50,x,,,,,10,0,40,1,581.4623732,,,,,,,,,581.4550598,581.4623732,582.4471345,582.4471345,582.4471345,582.4471345,582.4569921,583.4529335,583.4529335,583.8542115,x,1,0.396162834,None,,,,188792,1,2024-10-15_17h52.48.885,v4,2024.1.5,None,2024-10-15 17h53.01.392488 +0530
-150,z,,,,,10,1,41,0,583.8627137,,,,,,,,,583.8552225,583.8627137,584.8470581,584.8470581,584.8470581,584.8470581,584.8571377,585.8525408,585.8525408,586.1875973,z,1,0.327764875,None,,,,188792,1,2024-10-15_17h52.48.885,v4,2024.1.5,None,2024-10-15 17h53.01.392488 +0530
-150,z,,,,,10,2,42,0,586.1958818,,,,,,,,,586.1885973,586.1958818,587.1809032,587.1809032,587.1809032,587.1809032,587.1916336,588.1862787,588.1862787,588.5304932,z,1,0.33776375,None,,,,188792,1,2024-10-15_17h52.48.885,v4,2024.1.5,None,2024-10-15 17h53.01.392488 +0530
50,c,,,,,10,3,43,2,588.5391127,,,,,,,,,588.531507,588.5391127,589.5313525,589.5313525,589.5313525,589.5313525,589.5419686,590.5282463,590.5282463,591.0714302,c,1,0.537688458,None,,,,188792,1,2024-10-15_17h52.48.885,v4,2024.1.5,None,2024-10-15 17h53.01.392488 +0530
150,v,,,,,11,0,44,3,591.0805134,,,,,,,,,591.0725469,591.0805134,592.0704922,592.0704922,592.0704922,592.0704922,592.0790545,593.0698046,593.0698046,593.8682654,v,1,0.794939209,None,,,,188792,1,2024-10-15_17h52.48.885,v4,2024.1.5,None,2024-10-15 17h53.01.392488 +0530
-50,x,,,,,11,1,45,1,593.8796976,,,,,,,,,593.8693521,593.8796976,594.8652669,594.8652669,594.8652669,594.8652669,594.8751045,595.8615128,595.8615128,596.2254654,x,1,0.350943792,None,,,,188792,1,2024-10-15_17h52.48.885,v4,2024.1.5,None,2024-10-15 17h53.01.392488 +0530
-50,x,,,,,11,2,46,1,596.2375427,,,,,,,,,596.2265058,596.2375427,597.2372473,597.2372473,597.2372473,597.2372473,597.2539595,598.220062,598.220062,598.7136346,x,1,0.489505375,None,,,,188792,1,2024-10-15_17h52.48.885,v4,2024.1.5,None,2024-10-15 17h53.01.392488 +0530
150,v,,,,,11,3,47,3,598.7264077,,,,,,,,,598.7146668,598.7264077,599.716533,599.716533,599.716533,599.716533,599.7253755,600.7114024,600.7114024,601.251268,v,1,0.536179125,None,,,,188792,1,2024-10-15_17h52.48.885,v4,2024.1.5,None,2024-10-15 17h53.01.392488 +0530
50,c,,,,,12,0,48,2,601.2628849,,,,,,,,,601.2523044,601.2628849,602.2468147,602.2468147,602.2468147,602.2468147,602.2572593,603.2453883,603.2453883,603.9051278,c,1,0.656920875,None,,,,188792,1,2024-10-15_17h52.48.885,v4,2024.1.5,None,2024-10-15 17h53.01.392488 +0530
-150,z,,,,,12,1,49,0,603.9153916,,,,,,,,,603.9065777,603.9153916,604.9048228,604.9048228,604.9048228,604.9048228,604.9135006,605.9036287,605.9036287,606.3549985,z,1,0.425563084,None,,,,188792,1,2024-10-15_17h52.48.885,v4,2024.1.5,None,2024-10-15 17h53.01.392488 +0530
-150,z,,,,,12,2,50,0,606.366274,,,,,,,,,606.3560128,606.366274,607.3478042,607.3478042,607.3478042,607.3478042,607.3711746,608.3536841,608.3536841,608.8124287,z,1,0.452538208,None,,,,188792,1,2024-10-15_17h52.48.885,v4,2024.1.5,None,2024-10-15 17h53.01.392488 +0530
150,v,,,,,12,3,51,3,608.8208467,,,,,,,,,608.8134302,608.8208467,609.8141795,609.8141795,609.8141795,609.8141795,609.8141795,610.8196103,610.8196103,611.538107,v,1,0.712218459,None,,,,188792,1,2024-10-15_17h52.48.885,v4,2024.1.5,None,2024-10-15 17h53.01.392488 +0530
50,c,,,,,13,0,52,2,611.546413,,,,,,,,,611.5391035,611.546413,612.5371104,612.5371104,612.5371104,612.5371104,612.5451997,613.536678,613.536678,613.9718598,c,1,0.426041084,None,,,,188792,1,2024-10-15_17h52.48.885,v4,2024.1.5,None,2024-10-15 17h53.01.392488 +0530
150,v,,,,,13,1,53,3,613.9845047,,,,,,,,,613.9728436,613.9845047,614.987686,614.987686,614.987686,614.987686,615.0049112,615.9710032,615.9710032,616.4125197,v,1,0.434876458,None,,,,188792,1,2024-10-15_17h52.48.885,v4,2024.1.5,None,2024-10-15 17h53.01.392488 +0530
50,c,,,,,13,2,54,2,616.4213597,,,,,,,,,616.4136496,616.4213597,617.4123443,617.4123443,617.4123443,617.4123443,617.4279915,618.4227375,618.4227375,619.1073664,c,1,0.673413375,None,,,,188792,1,2024-10-15_17h52.48.885,v4,2024.1.5,None,2024-10-15 17h53.01.392488 +0530
-50,x,,,,,13,3,55,1,619.120727,,,,,,,,,619.1091392,619.120727,620.1050651,620.1050651,620.1050651,620.1050651,620.1139312,621.1047607,621.1047607,621.6531817,x,1,0.545340292,None,,,,188792,1,2024-10-15_17h52.48.885,v4,2024.1.5,None,2024-10-15 17h53.01.392488 +0530
-50,x,,,,,14,0,56,1,621.6608948,,,,,,,,,621.6542816,621.6608948,622.6488708,622.6488708,622.6488708,622.6488708,622.658771,623.64673,623.64673,624.2643446,x,1,0.610658958,None,,,,188792,1,2024-10-15_17h52.48.885,v4,2024.1.5,None,2024-10-15 17h53.01.392488 +0530
50,c,,,,,14,1,57,2,624.2757733,,,,,,,,,624.2658185,624.2757733,625.2626412,625.2626412,625.2626412,625.2626412,625.2717146,626.2626847,626.2626847,626.8627952,c,1,0.594444416,None,,,,188792,1,2024-10-15_17h52.48.885,v4,2024.1.5,None,2024-10-15 17h53.01.392488 +0530
50,c,,,,,14,2,58,2,626.8711655,,,,,,,,,626.8637819,626.8711655,627.8642795,627.8642795,627.8642795,627.8642795,627.8642795,628.8667147,628.8667147,629.3564619,c,1,0.479102583,None,,,,188792,1,2024-10-15_17h52.48.885,v4,2024.1.5,None,2024-10-15 17h53.01.392488 +0530
-150,z,,,,,14,3,59,0,629.3626738,,,,,,,,,629.3574953,629.3626738,630.37147,630.37147,630.37147,630.37147,630.3881167,631.3540788,631.3540788,631.7598668,z,1,0.393288958,None,,,,188792,1,2024-10-15_17h52.48.885,v4,2024.1.5,None,2024-10-15 17h53.01.392488 +0530
-50,x,,,,,15,0,60,1,631.7710872,,,,,,,,,631.7608979,631.7710872,632.7544381,632.7544381,632.7544381,632.7544381,632.7634439,633.7536724,633.7536724,634.289865,x,1,0.526254792,None,,,,188792,1,2024-10-15_17h52.48.885,v4,2024.1.5,None,2024-10-15 17h53.01.392488 +0530
-50,x,,,,,15,1,61,1,634.2963546,,,,,,,,,634.290893,634.2963546,635.288858,635.288858,635.288858,635.288858,635.288858,636.2870031,636.2870031,636.7297158,x,1,0.441129292,None,,,,188792,1,2024-10-15_17h52.48.885,v4,2024.1.5,None,2024-10-15 17h53.01.392488 +0530
-50,x,,,,,15,2,62,1,636.7545087,,,,,,,,,636.730816,636.7545087,637.7319338,637.7319338,637.7319338,637.7319338,637.7553831,638.72953,638.72953,639.1063872,x,1,0.372414459,None,,,,188792,1,2024-10-15_17h52.48.885,v4,2024.1.5,None,2024-10-15 17h53.01.392488 +0530
-150,z,,,,,15,3,63,0,639.114845,,,,,,,,,639.1074219,639.114845,640.1217167,640.1217167,640.1217167,640.1217167,640.1383341,641.1044752,641.1044752,641.5222422,z,1,0.410525084,None,,,,188792,1,2024-10-15_17h52.48.885,v4,2024.1.5,None,2024-10-15 17h53.01.392488 +0530
50,c,,,,,16,0,64,2,641.5303795,,,,,,,,,641.5232329,641.5303795,642.521803,642.521803,642.521803,642.521803,642.5307725,643.5210804,643.5210804,643.9135582,c,1,0.388969875,None,,,,188792,1,2024-10-15_17h52.48.885,v4,2024.1.5,None,2024-10-15 17h53.01.392488 +0530
50,c,,,,,16,1,65,2,643.9219242,,,,,,,,,643.9145462,643.9219242,644.9150188,644.9150188,644.9150188,644.9150188,644.9150188,645.9140152,645.9140152,646.3210262,c,1,0.404556916,None,,,,188792,1,2024-10-15_17h52.48.885,v4,2024.1.5,None,2024-10-15 17h53.01.392488 +0530
-150,z,,,,,16,2,66,0,646.3280308,,,,,,,,,646.3221482,646.3280308,647.316818,647.316818,647.316818,647.316818,647.3263613,648.3136391,648.3136391,648.8140189,z,1,0.494837083,None,,,,188792,1,2024-10-15_17h52.48.885,v4,2024.1.5,None,2024-10-15 17h53.01.392488 +0530
-150,z,,,,,16,3,67,0,648.8268742,,,,,,,,,648.8151312,648.8268742,649.8144343,649.8144343,649.8144343,649.8144343,649.822628,650.8118012,650.8118012,651.4299352,x,0,0.613824208,None,,,,188792,1,2024-10-15_17h52.48.885,v4,2024.1.5,None,2024-10-15 17h53.01.392488 +0530
150,v,,,,,17,0,68,3,651.4394447,,,,,,,,,651.4309585,651.4394447,652.4325608,652.4325608,652.4325608,652.4325608,652.4325608,653.4218687,653.4218687,654.0066852,v,1,0.576023584,None,,,,188792,1,2024-10-15_17h52.48.885,v4,2024.1.5,None,2024-10-15 17h53.01.392488 +0530
-50,x,,,,,17,1,69,1,654.0154171,,,,,,,,,654.0077156,654.0154171,655.0060257,655.0060257,655.0060257,655.0060257,655.0155725,656.0041763,656.0041763,656.4634064,x,1,0.453027208,None,,,,188792,1,2024-10-15_17h52.48.885,v4,2024.1.5,None,2024-10-15 17h53.01.392488 +0530
150,v,,,,,17,2,70,3,656.471916,,,,,,,,,656.4644057,656.471916,657.4649598,657.4649598,657.4649598,657.4649598,657.4649598,658.4642135,658.4642135,658.8770753,v,1,0.401271375,None,,,,188792,1,2024-10-15_17h52.48.885,v4,2024.1.5,None,2024-10-15 17h53.01.392488 +0530
-150,z,,,,,17,3,71,0,658.8890136,,,,,,,,,658.8781002,658.8890136,659.8889163,659.8889163,659.8889163,659.8889163,659.9052743,660.8710255,660.8710255,661.247546,z,1,0.369987625,None,,,,188792,1,2024-10-15_17h52.48.885,v4,2024.1.5,None,2024-10-15 17h53.01.392488 +0530
50,c,,,,,18,0,72,2,661.2598405,,,,,,,,,661.2486703,661.2598405,662.2526913,662.2526913,662.2526913,662.2526913,662.2683942,663.246831,663.246831,664.5069812,c,1,1.258643709,None,,,,188792,1,2024-10-15_17h52.48.885,v4,2024.1.5,None,2024-10-15 17h53.01.392488 +0530
150,v,,,,,18,1,73,3,664.5224645,,,,,,,,,664.5081108,664.5224645,665.5054219,665.5054219,665.5054219,665.5054219,665.5139578,666.505158,666.505158,666.947481,v,1,0.435860125,None,,,,188792,1,2024-10-15_17h52.48.885,v4,2024.1.5,None,2024-10-15 17h53.01.392488 +0530
150,v,,,,,18,2,74,3,666.956176,,,,,,,,,666.9484902,666.956176,667.9475375,667.9475375,667.9475375,667.9475375,667.956613,668.9467837,668.9467837,669.6231995,v,1,0.667676459,None,,,,188792,1,2024-10-15_17h52.48.885,v4,2024.1.5,None,2024-10-15 17h53.01.392488 +0530
50,c,,,,,18,3,75,2,669.6389597,,,,,,,,,669.6242941,669.6389597,670.6213586,670.6213586,670.6213586,670.6213586,670.6298442,671.621794,671.621794,672.322789,c,1,0.694716625,None,,,,188792,1,2024-10-15_17h52.48.885,v4,2024.1.5,None,2024-10-15 17h53.01.392488 +0530
-50,x,,,,,19,0,76,1,672.3317249,,,,,,,,,672.3237998,672.3317249,673.3180909,673.3180909,673.3180909,673.3180909,673.3320261,674.3226944,674.3226944,674.9041743,x,1,0.577658959,None,,,,188792,1,2024-10-15_17h52.48.885,v4,2024.1.5,None,2024-10-15 17h53.01.392488 +0530
-50,x,,,,,19,1,77,1,674.9150667,,,,,,,,,674.9052237,674.9150667,675.899836,675.899836,675.899836,675.899836,675.9105917,676.8972867,676.8972867,677.3639617,x,1,0.460420667,None,,,,188792,1,2024-10-15_17h52.48.885,v4,2024.1.5,None,2024-10-15 17h53.01.392488 +0530
-150,z,,,,,19,2,78,0,677.372544,,,,,,,,,677.3649595,677.372544,678.3658055,678.3658055,678.3658055,678.3658055,678.3658055,679.370484,679.370484,679.8038088,z,1,0.429525084,None,,,,188792,1,2024-10-15_17h52.48.885,v4,2024.1.5,None,2024-10-15 17h53.01.392488 +0530
-50,x,,,,,19,3,79,1,679.816572,,,,,,,,,679.8050289,679.816572,680.8001845,680.8001845,680.8001845,680.8001845,680.8107614,681.8229262,681.8229262,682.2212439,x,1,0.392080208,None,,,,188792,1,2024-10-15_17h52.48.885,v4,2024.1.5,None,2024-10-15 17h53.01.392488 +0530
-150,z,,,,,20,0,80,0,682.2352891,,,,,,,,,682.2230499,682.2352891,683.2257732,683.2257732,683.2257732,683.2257732,683.2394918,684.21685,684.21685,684.7668171,z,1,0.54445,None,,,,188792,1,2024-10-15_17h52.48.885,v4,2024.1.5,None,2024-10-15 17h53.01.392488 +0530
150,v,,,,,20,1,81,3,684.7793381,,,,,,,,,684.7682967,684.7793381,685.7666158,685.7666158,685.7666158,685.7666158,685.7857161,686.7640578,686.7640578,687.2311297,v,1,0.465101708,None,,,,188792,1,2024-10-15_17h52.48.885,v4,2024.1.5,None,2024-10-15 17h53.01.392488 +0530
50,c,,,,,20,2,82,2,687.255683,,,,,,,,,687.2321224,687.255683,688.2335,688.2335,688.2335,688.2335,688.2555079,689.2311675,689.2311675,689.9814317,c,1,0.745268958,None,,,,188792,1,2024-10-15_17h52.48.885,v4,2024.1.5,None,2024-10-15 17h53.01.392488 +0530
-150,z,,,,,20,3,83,0,689.9897437,,,,,,,,,689.982434,689.9897437,690.9822015,690.9822015,690.9822015,690.9822015,690.9822015,691.980755,691.980755,692.8281338,z,1,0.834950125,None,,,,188792,1,2024-10-15_17h52.48.885,v4,2024.1.5,None,2024-10-15 17h53.01.392488 +0530
50,c,,,,,21,0,84,2,692.8390401,,,,,,,,,692.8293305,692.8390401,693.8403794,693.8403794,693.8403794,693.8403794,693.8562355,694.8218965,694.8218965,695.5142956,c,1,0.687212375,None,,,,188792,1,2024-10-15_17h52.48.885,v4,2024.1.5,None,2024-10-15 17h53.01.392488 +0530
-50,x,,,,,21,1,85,1,695.5227617,,,,,,,,,695.515305,695.5227617,696.5165837,696.5165837,696.5165837,696.5165837,696.5165837,697.5144922,697.5144922,697.9900739,x,1,0.469117834,None,,,,188792,1,2024-10-15_17h52.48.885,v4,2024.1.5,None,2024-10-15 17h53.01.392488 +0530
50,c,,,,,21,2,86,2,697.9981929,,,,,,,,,697.9910546,697.9981929,698.9833317,698.9833317,698.9833317,698.9833317,698.9929377,699.9889716,699.9889716,700.3568154,c,1,0.359266917,None,,,,188792,1,2024-10-15_17h52.48.885,v4,2024.1.5,None,2024-10-15 17h53.01.392488 +0530
150,v,,,,,21,3,87,3,700.365019,,,,,,,,,700.35779,700.365019,701.3563524,701.3563524,701.3563524,701.3563524,701.3637929,702.3490679,702.3490679,702.8245455,v,1,0.467619,None,,,,188792,1,2024-10-15_17h52.48.885,v4,2024.1.5,None,2024-10-15 17h53.01.392488 +0530
50,c,,,,,22,0,88,2,702.8348451,,,,,,,,,702.8259813,702.8348451,703.8311724,703.8311724,703.8311724,703.8311724,703.8311724,704.8222,704.8222,706.0982185,c,1,1.269471167,None,,,,188792,1,2024-10-15_17h52.48.885,v4,2024.1.5,None,2024-10-15 17h53.01.392488 +0530
-150,z,,,,,22,1,89,0,706.1067356,,,,,,,,,706.0992405,706.1067356,707.1001502,707.1001502,707.1001502,707.1001502,707.1001502,708.0964077,708.0964077,708.6480328,z,1,0.546320959,None,,,,188792,1,2024-10-15_17h52.48.885,v4,2024.1.5,None,2024-10-15 17h53.01.392488 +0530
-50,x,,,,,22,2,90,1,708.6563629,,,,,,,,,708.6490485,708.6563629,709.6502328,709.6502328,709.6502328,709.6502328,709.6502328,710.6488521,710.6488521,711.5576965,x,1,0.886500875,None,,,,188792,1,2024-10-15_17h52.48.885,v4,2024.1.5,None,2024-10-15 17h53.01.392488 +0530
-150,z,,,,,22,3,91,0,711.5738242,,,,,,,,,711.5587055,711.5738242,712.5594562,712.5594562,712.5594562,712.5594562,712.5738985,713.5556683,713.5556683,714.0493775,z,1,0.489247875,None,,,,188792,1,2024-10-15_17h52.48.885,v4,2024.1.5,None,2024-10-15 17h53.01.392488 +0530
150,v,,,,,23,0,92,3,714.0612999,,,,,,,,,714.050526,714.0612999,715.0516875,715.0516875,715.0516875,715.0516875,715.0621166,716.0480203,716.0480203,716.7918352,v,1,0.735559458,None,,,,188792,1,2024-10-15_17h52.48.885,v4,2024.1.5,None,2024-10-15 17h53.01.392488 +0530
-150,z,,,,,23,1,93,0,716.8012464,,,,,,,,,716.7930076,716.8012464,717.7904348,717.7904348,717.7904348,717.7904348,717.7991128,718.789866,718.789866,719.3983717,z,1,0.605953292,None,,,,188792,1,2024-10-15_17h52.48.885,v4,2024.1.5,None,2024-10-15 17h53.01.392488 +0530
150,v,,,,,23,2,94,3,719.4068348,,,,,,,,,719.3993667,719.4068348,720.4005074,720.4005074,720.4005074,720.4005074,720.4005074,721.4012342,721.4012342,722.1650175,v,1,0.7575655,None,,,,188792,1,2024-10-15_17h52.48.885,v4,2024.1.5,None,2024-10-15 17h53.01.392488 +0530
-50,x,,,,,23,3,95,1,722.1734808,,,,,,,,,722.1660216,722.1734808,723.1665952,723.1665952,723.1665952,723.1665952,723.1665952,724.1653838,724.1653838,724.7627665,x,1,0.5832995,None,,,,188792,1,2024-10-15_17h52.48.885,v4,2024.1.5,None,2024-10-15 17h53.01.392488 +0530
50,c,,,,,24,0,96,2,724.7731391,,,,,,,,,724.7639186,724.7731391,725.7571426,725.7571426,725.7571426,725.7571426,725.7658745,726.7564141,726.7564141,727.1329597,c,1,0.37346525,None,,,,188792,1,2024-10-15_17h52.48.885,v4,2024.1.5,None,2024-10-15 17h53.01.392488 +0530
-150,z,,,,,24,1,97,0,727.1421056,,,,,,,,,727.1339827,727.1421056,728.1349478,728.1349478,728.1349478,728.1349478,728.1446432,729.1316424,729.1316424,729.765355,z,1,0.627325125,None,,,,188792,1,2024-10-15_17h52.48.885,v4,2024.1.5,None,2024-10-15 17h53.01.392488 +0530
50,c,,,,,24,2,98,2,729.7737621,,,,,,,,,729.7663467,729.7737621,730.7670977,730.7670977,730.7670977,730.7670977,730.7670977,731.7650609,731.7650609,732.4340672,c,1,0.665293542,None,,,,188792,1,2024-10-15_17h52.48.885,v4,2024.1.5,None,2024-10-15 17h53.01.392488 +0530
-150,z,,,,,24,3,99,0,732.4427523,,,,,,,,,732.435096,732.4427523,733.4359549,733.4359549,733.4359549,733.4359549,733.4444313,734.4316202,734.4316202,735.1598048,z,1,0.711975292,None,,,,188792,1,2024-10-15_17h52.48.885,v4,2024.1.5,None,2024-10-15 17h53.01.392488 +0530
150,v,,,,,25,0,100,3,735.1709103,,,,,,,,,735.160939,735.1709103,736.1566672,736.1566672,736.1566672,736.1566672,736.1650952,737.1563578,737.1563578,737.8660067,v,1,0.7052055,None,,,,188792,1,2024-10-15_17h52.48.885,v4,2024.1.5,None,2024-10-15 17h53.01.392488 +0530
-50,x,,,,,25,1,101,1,737.8774048,,,,,,,,,737.867149,737.8774048,738.8680737,738.8680737,738.8680737,738.8680737,738.8792412,739.865355,739.865355,740.3577893,x,1,0.485730583,None,,,,188792,1,2024-10-15_17h52.48.885,v4,2024.1.5,None,2024-10-15 17h53.01.392488 +0530
50,c,,,,,25,2,102,2,740.3661558,,,,,,,,,740.3587829,740.3661558,741.3509939,741.3509939,741.3509939,741.3509939,741.3601725,742.3691817,742.3691817,742.7351457,c,1,0.359400208,None,,,,188792,1,2024-10-15_17h52.48.885,v4,2024.1.5,None,2024-10-15 17h53.01.392488 +0530
50,c,,,,,25,3,103,2,742.7469555,,,,,,,,,742.7366482,742.7469555,743.735176,743.735176,743.735176,743.735176,743.745819,744.731843,744.731843,745.2349014,c,1,0.493817375,None,,,,188792,1,2024-10-15_17h52.48.885,v4,2024.1.5,None,2024-10-15 17h53.01.392488 +0530
50,c,,,,,26,0,104,2,745.2569919,,,,,,,,,745.2359497,745.2569919,746.2403635,746.2403635,746.2403635,746.2403635,746.2505715,747.232204,747.232204,747.6923702,c,1,0.450458833,None,,,,188792,1,2024-10-15_17h52.48.885,v4,2024.1.5,None,2024-10-15 17h53.01.392488 +0530
150,v,,,,,26,1,105,3,747.7013217,,,,,,,,,747.6935279,747.7013217,748.69173,748.69173,748.69173,748.69173,748.7010724,749.6902403,749.6902403,750.1157295,v,1,0.420556958,None,,,,188792,1,2024-10-15_17h52.48.885,v4,2024.1.5,None,2024-10-15 17h53.01.392488 +0530
150,v,,,,,26,2,106,3,750.1241722,,,,,,,,,750.1167111,750.1241722,751.1166887,751.1166887,751.1166887,751.1166887,751.1166887,752.1158632,752.1158632,752.6005279,v,1,0.481693042,None,,,,188792,1,2024-10-15_17h52.48.885,v4,2024.1.5,None,2024-10-15 17h53.01.392488 +0530
50,c,,,,,26,3,107,2,752.6104444,,,,,,,,,752.6015262,752.6104444,753.60855,753.60855,753.60855,753.60855,753.6242225,754.5987535,754.5987535,755.015653,c,1,0.411865416,None,,,,188792,1,2024-10-15_17h52.48.885,v4,2024.1.5,None,2024-10-15 17h53.01.392488 +0530
150,v,,,,,27,0,108,3,755.0240515,,,,,,,,,755.0166337,755.0240515,756.0174365,756.0174365,756.0174365,756.0174365,756.0174365,757.0141145,757.0141145,757.638013,v,1,0.621334417,None,,,,188792,1,2024-10-15_17h52.48.885,v4,2024.1.5,None,2024-10-15 17h53.01.392488 +0530
-50,x,,,,,27,1,109,1,757.6501345,,,,,,,,,757.6390518,757.6501345,758.636167,758.636167,758.636167,758.636167,758.6451433,759.631948,759.631948,760.041668,x,1,0.404533667,None,,,,188792,1,2024-10-15_17h52.48.885,v4,2024.1.5,None,2024-10-15 17h53.01.392488 +0530
-50,x,,,,,27,2,110,1,760.049999,,,,,,,,,760.0426457,760.049999,761.0410982,761.0410982,761.0410982,761.0410982,761.0505252,762.0401581,762.0401581,762.5422275,x,1,0.496979583,None,,,,188792,1,2024-10-15_17h52.48.885,v4,2024.1.5,None,2024-10-15 17h53.01.392488 +0530
150,v,,,,,27,3,111,3,762.5505842,,,,,,,,,762.5432105,762.5505842,763.552199,763.552199,763.552199,763.552199,763.5652182,764.5407748,764.5407748,765.2852862,v,1,0.735493375,None,,,,188792,1,2024-10-15_17h52.48.885,v4,2024.1.5,None,2024-10-15 17h53.01.392488 +0530
-50,x,,,,,28,0,112,1,765.307596,,,,,,,,,765.2863095,765.307596,766.286372,766.286372,766.286372,766.286372,766.3151504,767.2837939,767.2837939,767.7661132,x,1,0.476753625,None,,,,188792,1,2024-10-15_17h52.48.885,v4,2024.1.5,None,2024-10-15 17h53.01.392488 +0530
-50,x,,,,,28,1,113,1,767.774554,,,,,,,,,767.7671048,767.774554,768.7680554,768.7680554,768.7680554,768.7680554,768.7680554,769.7658807,769.7658807,770.2016686,x,1,0.426465625,None,,,,188792,1,2024-10-15_17h52.48.885,v4,2024.1.5,None,2024-10-15 17h53.01.392488 +0530
150,v,,,,,28,2,114,3,770.2080523,,,,,,,,,770.2026877,770.2080523,771.1995851,771.1995851,771.1995851,771.1995851,771.2089133,772.1992942,772.1992942,772.9172858,v,1,0.713334583,None,,,,188792,1,2024-10-15_17h52.48.885,v4,2024.1.5,None,2024-10-15 17h53.01.392488 +0530
150,v,,,,,28,3,115,3,772.9283152,,,,,,,,,772.9184144,772.9283152,773.9164425,773.9164425,773.9164425,773.9164425,773.9247685,774.9198413,774.9198413,776.0621077,v,1,1.131385375,None,,,,188792,1,2024-10-15_17h52.48.885,v4,2024.1.5,None,2024-10-15 17h53.01.392488 +0530
150,v,,,,,29,0,116,3,776.0751389,,,,,,,,,776.0631315,776.0751389,777.0575877,777.0575877,777.0575877,777.0575877,777.0713417,778.0573065,778.0573065,778.5333372,v,1,0.470849667,None,,,,188792,1,2024-10-15_17h52.48.885,v4,2024.1.5,None,2024-10-15 17h53.01.392488 +0530
150,v,,,,,29,1,117,3,778.5577188,,,,,,,,,778.5344329,778.5577188,779.5366132,779.5366132,779.5366132,779.5366132,779.5576729,780.5295197,780.5295197,780.942581,v,1,0.393100167,None,,,,188792,1,2024-10-15_17h52.48.885,v4,2024.1.5,None,2024-10-15 17h53.01.392488 +0530
-50,x,,,,,29,2,118,1,780.9582655,,,,,,,,,780.943655,780.9582655,781.9580023,781.9580023,781.9580023,781.9580023,781.9748401,782.9405122,782.9405122,783.8255882,x,1,0.876209208,None,,,,188792,1,2024-10-15_17h52.48.885,v4,2024.1.5,None,2024-10-15 17h53.01.392488 +0530
-150,z,,,,,29,3,119,0,783.8346005,,,,,,,,,783.8266882,783.8346005,784.8190976,784.8190976,784.8190976,784.8190976,784.8297492,785.8244845,785.8244845,786.2200247,z,1,0.3847235,None,,,,188792,1,2024-10-15_17h52.48.885,v4,2024.1.5,None,2024-10-15 17h53.01.392488 +0530
-150,z,,,,,30,0,120,0,786.2272314,,,,,,,,,786.2210701,786.2272314,787.2198846,787.2198846,787.2198846,787.2198846,787.2286413,788.2270579,788.2270579,788.5636611,z,1,0.334340792,None,,,,188792,1,2024-10-15_17h52.48.885,v4,2024.1.5,None,2024-10-15 17h53.01.392488 +0530
50,c,,,,,30,1,121,2,788.5751844,,,,,,,,,788.5650021,788.5751844,789.5630726,789.5630726,789.5630726,789.5630726,789.5747315,790.5577705,790.5577705,791.2216495,c,1,0.651279625,None,,,,188792,1,2024-10-15_17h52.48.885,v4,2024.1.5,None,2024-10-15 17h53.01.392488 +0530
150,v,,,,,30,2,122,3,791.2280905,,,,,,,,,791.2226618,791.2280905,792.2198509,792.2198509,792.2198509,792.2198509,792.2298773,793.2255953,793.2255953,793.8759523,v,1,0.642969542,None,,,,188792,1,2024-10-15_17h52.48.885,v4,2024.1.5,None,2024-10-15 17h53.01.392488 +0530
50,c,,,,,30,3,123,2,793.8846674,,,,,,,,,793.8770535,793.8846674,794.8916408,794.8916408,794.8916408,794.8916408,794.9083878,795.874727,795.874727,796.7602755,c,1,0.875682125,None,,,,188792,1,2024-10-15_17h52.48.885,v4,2024.1.5,None,2024-10-15 17h53.01.392488 +0530
50,c,,,,,31,0,124,2,796.7665826,,,,,,,,,796.7612927,796.7665826,797.7596751,797.7596751,797.7596751,797.7596751,797.7691527,798.7579829,798.7579829,799.9335749,c,1,1.169310333,None,,,,188792,1,2024-10-15_17h52.48.885,v4,2024.1.5,None,2024-10-15 17h53.01.392488 +0530
-50,x,,,,,31,1,125,1,799.9421586,,,,,,,,,799.934557,799.9421586,800.9352019,800.9352019,800.9352019,800.9352019,800.9352019,801.9342981,801.9342981,802.709384,x,1,0.770841208,None,,,,188792,1,2024-10-15_17h52.48.885,v4,2024.1.5,None,2024-10-15 17h53.01.392488 +0530
50,c,,,,,31,2,126,2,802.7180375,,,,,,,,,802.7104909,802.7180375,803.7023715,803.7023715,803.7023715,803.7023715,803.7114965,804.7089042,804.7089042,805.2014259,c,1,0.485338167,None,,,,188792,1,2024-10-15_17h52.48.885,v4,2024.1.5,None,2024-10-15 17h53.01.392488 +0530
-150,z,,,,,31,3,127,0,805.212695,,,,,,,,,805.2029127,805.212695,806.209269,806.209269,806.209269,806.209269,806.2187401,807.2000755,807.2000755,808.0900728,z,1,0.886345791,None,,,,188792,1,2024-10-15_17h52.48.885,v4,2024.1.5,None,2024-10-15 17h53.01.392488 +0530
-50,x,,,,,32,0,128,1,808.1012445,,,,,,,,,808.0911103,808.1012445,809.0869521,809.0869521,809.0869521,809.0869521,809.0965213,810.0834769,810.0834769,810.6837158,x,1,0.598461542,None,,,,188792,1,2024-10-15_17h52.48.885,v4,2024.1.5,None,2024-10-15 17h53.01.392488 +0530
-150,z,,,,,32,1,129,0,810.6919478,,,,,,,,,810.6847366,810.6919478,811.6921498,811.6921498,811.6921498,811.6921498,811.6921498,812.6836425,812.6836425,813.1829061,z,1,0.488451375,None,,,,188792,1,2024-10-15_17h52.48.885,v4,2024.1.5,None,2024-10-15 17h53.01.392488 +0530
-150,z,,,,,32,2,130,0,813.1915165,,,,,,,,,813.183961,813.1915165,814.185937,814.185937,814.185937,814.185937,814.185937,815.1835116,815.1835116,815.7927388,z,1,0.6037895,None,,,,188792,1,2024-10-15_17h52.48.885,v4,2024.1.5,None,2024-10-15 17h53.01.392488 +0530
-50,x,,,,,32,3,131,1,815.8011413,,,,,,,,,815.793712,815.8011413,816.8003508,816.8003508,816.8003508,816.8003508,816.8003508,817.7926841,817.7926841,818.2963379,x,1,0.492003833,None,,,,188792,1,2024-10-15_17h52.48.885,v4,2024.1.5,None,2024-10-15 17h53.01.392488 +0530
-50,x,,,,,33,0,132,1,818.3093103,,,,,,,,,818.2973883,818.3093103,819.293037,819.293037,819.293037,819.293037,819.3025673,820.2919197,820.2919197,820.5769467,x,1,0.272970708,None,,,,188792,1,2024-10-15_17h52.48.885,v4,2024.1.5,None,2024-10-15 17h53.01.392488 +0530
50,c,,,,,33,1,133,2,820.5938469,,,,,,,,,820.5780459,820.5938469,821.5764133,821.5764133,821.5764133,821.5764133,821.585756,822.575239,822.575239,822.9344443,c,1,0.355602125,None,,,,188792,1,2024-10-15_17h52.48.885,v4,2024.1.5,None,2024-10-15 17h53.01.392488 +0530
-50,x,,,,,33,2,134,1,822.944288,,,,,,,,,822.9356502,822.944288,823.9373569,823.9373569,823.9373569,823.9373569,823.94683,824.9339113,824.9339113,825.3501326,x,1,0.410813583,None,,,,188792,1,2024-10-15_17h52.48.885,v4,2024.1.5,None,2024-10-15 17h53.01.392488 +0530
-50,x,,,,,33,3,135,1,825.3586875,,,,,,,,,825.3511201,825.3586875,826.3436896,826.3436896,826.3436896,826.3436896,826.352982,827.3504718,827.3504718,827.7847058,x,1,0.429082833,None,,,,188792,1,2024-10-15_17h52.48.885,v4,2024.1.5,None,2024-10-15 17h53.01.392488 +0530
150,v,,,,,34,0,136,3,827.8089414,,,,,,,,,827.7856827,827.8089414,828.7870132,828.7870132,828.7870132,828.7870132,828.8087912,829.783727,829.783727,830.3008067,v,1,0.510716,None,,,,188792,1,2024-10-15_17h52.48.885,v4,2024.1.5,None,2024-10-15 17h53.01.392488 +0530
150,v,,,,,34,1,137,3,830.3091232,,,,,,,,,830.3017788,830.3091232,831.3026964,831.3026964,831.3026964,831.3026964,831.3026964,832.2936187,832.2936187,832.8675124,v,1,0.559077875,None,,,,188792,1,2024-10-15_17h52.48.885,v4,2024.1.5,None,2024-10-15 17h53.01.392488 +0530
150,v,,,,,34,2,138,3,832.877274,,,,,,,,,832.8685415,832.877274,833.8713477,833.8713477,833.8713477,833.8713477,833.8821455,834.8712843,834.8712843,835.5353671,v,1,0.658679916,None,,,,188792,1,2024-10-15_17h52.48.885,v4,2024.1.5,None,2024-10-15 17h53.01.392488 +0530
150,v,,,,,34,3,139,3,835.5460204,,,,,,,,,835.5368651,835.5460204,836.5351713,836.5351713,836.5351713,836.5351713,836.5427641,837.5386905,837.5386905,838.0268264,v,1,0.483519083,None,,,,188792,1,2024-10-15_17h52.48.885,v4,2024.1.5,None,2024-10-15 17h53.01.392488 +0530
50,c,,,,,35,0,140,2,838.0364032,,,,,,,,,838.0278066,838.0364032,839.0338053,839.0338053,839.0338053,839.0338053,839.0338053,840.0256466,840.0256466,840.5936737,c,1,0.559268667,None,,,,188792,1,2024-10-15_17h52.48.885,v4,2024.1.5,None,2024-10-15 17h53.01.392488 +0530
-150,z,,,,,35,1,141,0,840.602771,,,,,,,,,840.5947881,840.602771,841.6011215,841.6011215,841.6011215,841.6011215,841.6011215,842.5918452,842.5918452,843.1435275,z,1,0.544602709,None,,,,188792,1,2024-10-15_17h52.48.885,v4,2024.1.5,None,2024-10-15 17h53.01.392488 +0530
-150,z,,,,,35,2,142,0,843.1520457,,,,,,,,,843.1445042,843.1520457,844.1507354,844.1507354,844.1507354,844.1507354,844.1507354,845.1424246,845.1424246,845.6602197,z,1,0.51350775,None,,,,188792,1,2024-10-15_17h52.48.885,v4,2024.1.5,None,2024-10-15 17h53.01.392488 +0530
-150,z,,,,,35,3,143,0,845.668507,,,,,,,,,845.6611984,845.668507,846.6543901,846.6543901,846.6543901,846.6543901,846.672869,847.6596295,847.6596295,848.596882,z,1,0.923735459,None,,,,188792,1,2024-10-15_17h52.48.885,v4,2024.1.5,None,2024-10-15 17h53.01.392488 +0530
-50,x,,,,,36,0,144,1,848.6228697,,,,,,,,,848.6002959,848.6228697,849.5924349,849.5924349,849.5924349,849.5924349,849.6436297,850.5925051,850.5925051,851.1679815,x,1,0.569969333,None,,,,188792,1,2024-10-15_17h52.48.885,v4,2024.1.5,None,2024-10-15 17h53.01.392488 +0530
50,c,,,,,36,1,145,2,851.1870805,,,,,,,,,851.1690177,851.1870805,852.1706527,852.1706527,852.1706527,852.1706527,852.1818293,853.1682932,853.1682932,853.5571595,c,1,0.376898083,None,,,,188792,1,2024-10-15_17h52.48.885,v4,2024.1.5,None,2024-10-15 17h53.01.392488 +0530
-50,x,,,,,36,2,146,1,853.5645129,,,,,,,,,853.5583522,853.5645129,854.5548192,854.5548192,854.5548192,854.5548192,854.5718538,855.551081,855.551081,856.0775193,x,1,0.513893042,None,,,,188792,1,2024-10-15_17h52.48.885,v4,2024.1.5,None,2024-10-15 17h53.01.392488 +0530
150,v,,,,,36,3,147,3,856.0938852,,,,,,,,,856.0785736,856.0938852,857.0932628,857.0932628,857.0932628,857.0932628,857.1089589,858.0939178,858.0939178,858.5349572,v,1,0.434320125,None,,,,188792,1,2024-10-15_17h52.48.885,v4,2024.1.5,None,2024-10-15 17h53.01.392488 +0530
150,v,,,,,37,0,148,3,858.559971,,,,,,,,,858.5359541,858.559971,859.5340414,859.5340414,859.5340414,859.5340414,859.5499806,860.5350282,860.5350282,861.3321251,v,1,0.77640325,None,,,,188792,1,2024-10-15_17h52.48.885,v4,2024.1.5,None,2024-10-15 17h53.01.392488 +0530
50,c,,,,,37,1,149,2,861.3434028,,,,,,,,,861.33361,861.3434028,862.3443636,862.3443636,862.3443636,862.3443636,862.3530288,863.3271642,863.3271642,863.9650639,c,1,0.626520584,None,,,,188792,1,2024-10-15_17h52.48.885,v4,2024.1.5,None,2024-10-15 17h53.01.392488 +0530
-150,z,,,,,37,2,150,0,863.9773484,,,,,,,,,863.9667881,863.9773484,864.9752302,864.9752302,864.9752302,864.9752302,864.994874,865.9645441,865.9645441,866.5464416,z,1,0.575251,None,,,,188792,1,2024-10-15_17h52.48.885,v4,2024.1.5,None,2024-10-15 17h53.01.392488 +0530
-150,z,,,,,37,3,151,0,866.5621135,,,,,,,,,866.5486058,866.5621135,867.5596738,867.5596738,867.5596738,867.5596738,867.5761579,868.5601417,868.5601417,868.9656161,z,1,0.399768125,None,,,,188792,1,2024-10-15_17h52.48.885,v4,2024.1.5,None,2024-10-15 17h53.01.392488 +0530
150,v,,,,,38,0,152,3,868.9837715,,,,,,,,,868.9674844,868.9837715,869.9681777,869.9681777,869.9681777,869.9681777,869.977139,870.9768964,870.9768964,871.4456101,v,1,0.462177375,None,,,,188792,1,2024-10-15_17h52.48.885,v4,2024.1.5,None,2024-10-15 17h53.01.392488 +0530
-50,x,,,,,38,1,153,1,871.4570931,,,,,,,,,871.447116,871.4570931,872.4602909,872.4602909,872.4602909,872.4602909,872.4696066,873.7328473,873.7328473,874.3462037,x,1,0.586262583,None,,,,188792,1,2024-10-15_17h52.48.885,v4,2024.1.5,None,2024-10-15 17h53.01.392488 +0530
150,v,,,,,38,2,154,3,874.3706021,,,,,,,,,874.3526671,874.3706021,875.3583185,875.3583185,875.3583185,875.3583185,875.3751264,876.3644303,876.3644303,876.813248,v,1,0.439040334,None,,,,188792,1,2024-10-15_17h52.48.885,v4,2024.1.5,None,2024-10-15 17h53.01.392488 +0530
-150,z,,,,,38,3,155,0,876.8246119,,,,,,,,,876.8148225,876.8246119,877.8112317,877.8112317,877.8112317,877.8112317,877.8213893,878.8100172,878.8100172,879.362467,z,1,0.547558542,None,,,,188792,1,2024-10-15_17h52.48.885,v4,2024.1.5,None,2024-10-15 17h53.01.392488 +0530
50,c,,,,,39,0,156,2,879.3733058,,,,,,,,,879.3637058,879.3733058,880.3772678,880.3772678,880.3772678,880.3772678,880.3897595,881.3593452,881.3593452,881.7869098,c,1,0.420590084,None,,,,188792,1,2024-10-15_17h52.48.885,v4,2024.1.5,None,2024-10-15 17h53.01.392488 +0530
-150,z,,,,,39,1,157,0,881.79727,,,,,,,,,881.7879427,881.79727,882.7867879,882.7867879,882.7867879,882.7867879,882.8103856,883.7845462,883.7845462,884.1631348,z,1,0.362884,None,,,,188792,1,2024-10-15_17h52.48.885,v4,2024.1.5,None,2024-10-15 17h53.01.392488 +0530
-150,z,,,,,39,2,158,0,884.1732213,,,,,,,,,884.1645912,884.1732213,885.1640274,885.1640274,885.1640274,885.1640274,885.1779355,886.1600743,886.1600743,886.5810375,z,1,0.409392292,None,,,,188792,1,2024-10-15_17h52.48.885,v4,2024.1.5,None,2024-10-15 17h53.01.392488 +0530
-50,x,,,,,39,3,159,1,886.5941709,,,,,,,,,886.5820912,886.5941709,887.5850915,887.5850915,887.5850915,887.5850915,887.5946384,888.5761846,888.5761846,889.1282492,x,1,0.548593334,None,,,,188792,1,2024-10-15_17h52.48.885,v4,2024.1.5,None,2024-10-15 17h53.01.392488 +0530
50,c,,,,,40,0,160,2,889.1379848,,,,,,,,,889.1292379,889.1379848,890.1353794,890.1353794,890.1353794,890.1353794,890.1353794,891.1266145,891.1266145,891.4807406,c,1,0.343757458,None,,,,188792,1,2024-10-15_17h52.48.885,v4,2024.1.5,None,2024-10-15 17h53.01.392488 +0530
-50,x,,,,,40,1,161,1,891.4937108,,,,,,,,,891.4817772,891.4937108,892.4783078,892.4783078,892.4783078,892.4783078,892.4865372,893.4763572,893.4763572,893.9025547,x,1,0.419828,None,,,,188792,1,2024-10-15_17h52.48.885,v4,2024.1.5,None,2024-10-15 17h53.01.392488 +0530
150,v,,,,,40,2,162,3,893.9271553,,,,,,,,,893.9035351,893.9271553,894.90443,894.90443,894.90443,894.90443,894.9278056,895.9025681,895.9025681,896.3878492,v,1,0.481165291,None,,,,188792,1,2024-10-15_17h52.48.885,v4,2024.1.5,None,2024-10-15 17h53.01.392488 +0530
-150,z,,,,,40,3,163,0,896.3986795,,,,,,,,,896.3891192,896.3986795,897.3875219,897.3875219,897.3875219,897.3875219,897.396208,898.3853538,898.3853538,898.7770588,z,1,0.387359875,None,,,,188792,1,2024-10-15_17h52.48.885,v4,2024.1.5,None,2024-10-15 17h53.01.392488 +0530
150,v,,,,,41,0,164,3,898.7864745,,,,,,,,,898.7780804,898.7864745,899.7718133,899.7718133,899.7718133,899.7718133,899.783035,900.7687168,900.7687168,901.2028569,v,1,0.428370042,None,,,,188792,1,2024-10-15_17h52.48.885,v4,2024.1.5,None,2024-10-15 17h53.01.392488 +0530
-50,x,,,,,41,1,165,1,901.2110155,,,,,,,,,901.2038878,901.2110155,902.2094785,902.2094785,902.2094785,902.2094785,902.2094785,903.2022644,903.2022644,903.7353355,x,1,0.52831875,None,,,,188792,1,2024-10-15_17h52.48.885,v4,2024.1.5,None,2024-10-15 17h53.01.392488 +0530
-50,x,,,,,41,2,166,1,903.7439635,,,,,,,,,903.7363189,903.7439635,904.7379545,904.7379545,904.7379545,904.7379545,904.7379545,905.7359359,905.7359359,906.1614796,x,1,0.419378458,None,,,,188792,1,2024-10-15_17h52.48.885,v4,2024.1.5,None,2024-10-15 17h53.01.392488 +0530
-50,x,,,,,41,3,167,1,906.1698044,,,,,,,,,906.1624658,906.1698044,907.1536426,907.1536426,907.1536426,907.1536426,907.1620281,908.1683,908.1683,908.50268,x,1,0.329061916,None,,,,188792,1,2024-10-15_17h52.48.885,v4,2024.1.5,None,2024-10-15 17h53.01.392488 +0530
-150,z,,,,,42,0,168,0,908.528144,,,,,,,,,908.5038057,908.528144,909.5043305,909.5043305,909.5043305,909.5043305,909.5279819,910.5013315,910.5013315,910.9431567,z,1,0.438575416,None,,,,188792,1,2024-10-15_17h52.48.885,v4,2024.1.5,None,2024-10-15 17h53.01.392488 +0530
-50,x,,,,,42,1,169,1,910.95065,,,,,,,,,910.9441957,910.95065,911.9394872,911.9394872,911.9394872,911.9394872,911.9489852,912.9380043,912.9380043,913.8359222,x,1,0.892903792,None,,,,188792,1,2024-10-15_17h52.48.885,v4,2024.1.5,None,2024-10-15 17h53.01.392488 +0530
-150,z,,,,,42,2,170,0,913.8444709,,,,,,,,,913.8369317,913.8444709,914.8378349,914.8378349,914.8378349,914.8378349,914.8378349,915.8368958,915.8368958,916.3361662,z,1,0.49542525,None,,,,188792,1,2024-10-15_17h52.48.885,v4,2024.1.5,None,2024-10-15 17h53.01.392488 +0530
-50,x,,,,,42,3,171,1,916.3447391,,,,,,,,,916.3372051,916.3447391,917.3371816,917.3371816,917.3371816,917.3371816,917.3371816,918.3356733,918.3356733,918.9026357,x,1,0.560966083,None,,,,188792,1,2024-10-15_17h52.48.885,v4,2024.1.5,None,2024-10-15 17h53.01.392488 +0530
